{
    "AutoApprovalTime": "2015-03-12T01:39:37Z",
    "AssignmentId": "320DUZ38G7ME4EBIJXJOKI8JKGMGJ3",
    "WorkerId": "A1C8VTCBIE618T",
    "AcceptTime": "2015-03-10T01:05:51Z",
    "HITId": "363A7XIFV4MJYY0GOJ0W20CPME0VAH",
    "Assignment": "",
    "answer": [
        {
            "rt": 68075,
            "trial_type": "text",
            "internal_chunk_id": "0-0",
            "time_elapsed": 68181,
            "key_press": 13,
            "trial_index": 0,
            "trial_index_global": 0
        },
        {
            "rt": -1,
            "trial_type": "single-stim",
            "stimulus": "",
            "internal_chunk_id": "0-0",
            "time_elapsed": 69187,
            "key_press": -1,
            "global_params": {
                "second_stage_stim": {
                    "stimulus": [
                        "<div class = decision-left style='background:#E0C2FF; width:330px;height:230px;'><img class = 'decision-stim' src= 'images/85.png'></img></div><div class = decision-right style='background:#E0C2FF; width:330px;height:230px;'><img class = 'decision-stim' src= 'images/83.png'></img></div>",
                        "<div class = decision-left style='background:#E0C2FF; width:330px;height:230px;'><img class = 'decision-stim' src= 'images/83.png'></img></div><div class = decision-right style='background:#E0C2FF; width:330px;height:230px;'><img class = 'decision-stim' src= 'images/85.png'></img></div>",
                        "<div class = decision-left style='background:#CCFF99; width:330px;height:230px;'><img class = 'decision-stim' src= 'images/84.png'></img></div><div class = decision-right style='background:#CCFF99; width:330px;height:230px;'><img class = 'decision-stim' src= 'images/80.png'></img></div>",
                        "<div class = decision-left style='background:#CCFF99; width:330px;height:230px;'><img class = 'decision-stim' src= 'images/80.png'></img></div><div class = decision-right style='background:#CCFF99; width:330px;height:230px;'><img class = 'decision-stim' src= 'images/84.png'></img></div>"
                    ],
                    "id": [
                        [
                            2,
                            3
                        ],
                        [
                            3,
                            2
                        ],
                        [
                            4,
                            5
                        ],
                        [
                            5,
                            4
                        ]
                    ]
                },
                "stims": [
                    "images/81.png",
                    "images/82.png",
                    "images/85.png",
                    "images/83.png",
                    "images/84.png",
                    "images/80.png"
                ],
                "fs_stim": [
                    {
                        "stimulus": "<div class = decision-left style='background:#F1B8D4; width:330px;height:230px;'><img class = 'decision-stim' src= 'images/81.png'></img></div><div class = decision-right style='background:#F1B8D4; width:330px;height:230px;'><img class = 'decision-stim' src= 'images/82.png'></img></div>",
                        "id": [
                            0,
                            1
                        ]
                    },
                    {
                        "stimulus": "<div class = decision-left style='background:#F1B8D4; width:330px;height:230px;'><img class = 'decision-stim' src= 'images/82.png'></img></div><div class = decision-right style='background:#F1B8D4; width:330px;height:230px;'><img class = 'decision-stim' src= 'images/81.png'></img></div>",
                        "id": [
                            1,
                            0
                        ]
                    }
                ],
                "condition": "practice",
                "actions": [
                    37,
                    39
                ]
            },
            "type": "decision_global",
            "trial_index": 0,
            "trial_index_global": 1
        },
        {
            "rt": 1548,
            "trial_type": "single-stim",
            "stimulus": "<div class = decision-left style='background:#F1B8D4; width:330px;height:230px;'><img class = 'decision-stim' src= 'images/81.png'></img></div><div class = decision-right style='background:#F1B8D4; width:330px;height:230px;'><img class = 'decision-stim' src= 'images/82.png'></img></div>",
            "trial_count": 0,
            "internal_chunk_id": "0-0.2-0.0-0",
            "time_elapsed": 70820,
            "key_press": 37,
            "type": "decision_first",
            "trial_index": 0,
            "trial_index_global": 2
        },
        {
            "rt": -1,
            "trial_type": "single-stim",
            "stimulus": "<div class = 'selected decision-left' style='background:#F1B8D4; width:330px;height:230px;'><img class = 'decision-stim' src= 'images/81.png'></div><div class = 'decision-right fade' style='background:#F1B8D4; width:330px;height:230px;'><img class = 'decision-stim  fade' src= 'images/82.png'></div>",
            "internal_chunk_id": "0-0.2-0.0-0",
            "time_elapsed": 71838,
            "key_press": -1,
            "trial_index": 0,
            "trial_index_global": 3
        },
        {
            "rt": 1738,
            "trial_type": "single-stim",
            "stimulus": "<div class = 'decision-top-background faded' style='background:#F1B8D4; width:330px;height:230px;'><img class = 'decision-stim' src= 'images/81.png'></div><div class = decision-left style='background:#E0C2FF; width:330px;height:230px;'><img class = 'decision-stim' src= 'images/83.png'></img></div><div class = decision-right style='background:#E0C2FF; width:330px;height:230px;'><img class = 'decision-stim' src= 'images/85.png'></img></div>",
            "trial_count": 0,
            "internal_chunk_id": "0-0.2-0",
            "time_elapsed": 73716,
            "key_press": 39,
            "type": "decision_second",
            "trial_index": 0,
            "trial_index_global": 4
        },
        {
            "rt": -1,
            "trial_type": "single-stim",
            "stimulus": "<div class = 'decision-right selected' style='background:#E0C2FF; width:330px;height:230px;'><img class = 'decision-stim' src= 'images/85.png'></div><div class = 'fade decision-left' style='background:#E0C2FF; width:330px;height:230px;'><img class = 'decision-stim' src= 'images/83.png'></div>",
            "internal_chunk_id": "0-0.2-0.2-0",
            "time_elapsed": 74725,
            "key_press": -1,
            "trial_index": 0,
            "trial_index_global": 5
        },
        {
            "rt": -1,
            "trial_type": "single-stim",
            "stimulus": "<div class = 'decision-top-background faded' style='background:#E0C2FF; width:330px;height:230px;'><img class = 'decision-stim' src= 'images/85.png'></div><div style = text-align:center><p class = decision-fb style = 'color:red;font-size:60px'>0</p></div>",
            "trial_count": 0,
            "internal_chunk_id": "0-0.2-0.2-0",
            "time_elapsed": 75235,
            "key_press": -1,
            "type": "decision_FB",
            "trial_index": 0,
            "trial_index_global": 6
        },
        {
            "rt": -1,
            "trial_type": "single-stim",
            "stimulus": "",
            "internal_chunk_id": "0-0.2-0.2-0",
            "time_elapsed": 76233,
            "key_press": -1,
            "trial_index": 0,
            "trial_index_global": 7
        },
        {
            "rt": 1539,
            "trial_type": "single-stim",
            "stimulus": "<div class = decision-left style='background:#F1B8D4; width:330px;height:230px;'><img class = 'decision-stim' src= 'images/82.png'></img></div><div class = decision-right style='background:#F1B8D4; width:330px;height:230px;'><img class = 'decision-stim' src= 'images/81.png'></img></div>",
            "trial_count": 1,
            "internal_chunk_id": "0-0.2-1.0-1",
            "time_elapsed": 77886,
            "key_press": 37,
            "type": "decision_first",
            "trial_index": 0,
            "trial_index_global": 8
        },
        {
            "rt": -1,
            "trial_type": "single-stim",
            "stimulus": "<div class = 'selected decision-left' style='background:#F1B8D4; width:330px;height:230px;'><img class = 'decision-stim' src= 'images/82.png'></div><div class = 'decision-right fade' style='background:#F1B8D4; width:330px;height:230px;'><img class = 'decision-stim  fade' src= 'images/81.png'></div>",
            "internal_chunk_id": "0-0.2-1.0-1",
            "time_elapsed": 78895,
            "key_press": -1,
            "trial_index": 0,
            "trial_index_global": 9
        },
        {
            "rt": -1,
            "trial_type": "single-stim",
            "stimulus": "<div class = 'decision-top-background faded' style='background:#F1B8D4; width:330px;height:230px;'><img class = 'decision-stim' src= 'images/82.png'></div><div class = decision-left style='background:#CCFF99; width:330px;height:230px;'><img class = 'decision-stim' src= 'images/84.png'></img></div><div class = decision-right style='background:#CCFF99; width:330px;height:230px;'><img class = 'decision-stim' src= 'images/80.png'></img></div>",
            "trial_count": 1,
            "internal_chunk_id": "0-0.2-1",
            "time_elapsed": 80918,
            "key_press": -1,
            "type": "decision_second",
            "trial_index": 0,
            "trial_index_global": 10
        },
        {
            "rt": -1,
            "trial_type": "single-stim",
            "internal_chunk_id": "0-0.2-1.2-1",
            "time_elapsed": 81932,
            "key_press": -1,
            "trial_index": 0,
            "trial_index_global": 11
        },
        {
            "rt": -1,
            "trial_type": "single-stim",
            "stimulus": "<div class = centerbox style = text-align:center><p style = font-size:30px>Please respond faster </p></div>",
            "trial_count": 1,
            "internal_chunk_id": "0-0.2-1.2-1",
            "time_elapsed": 82443,
            "key_press": -1,
            "type": "decision_FB",
            "trial_index": 0,
            "trial_index_global": 12
        },
        {
            "rt": -1,
            "trial_type": "single-stim",
            "stimulus": "",
            "internal_chunk_id": "0-0.2-1.2-1",
            "time_elapsed": 83436,
            "key_press": -1,
            "trial_index": 0,
            "trial_index_global": 13
        },
        {
            "rt": 337,
            "trial_type": "single-stim",
            "stimulus": "<div class = decision-left style='background:#F1B8D4; width:330px;height:230px;'><img class = 'decision-stim' src= 'images/81.png'></img></div><div class = decision-right style='background:#F1B8D4; width:330px;height:230px;'><img class = 'decision-stim' src= 'images/82.png'></img></div>",
            "trial_count": 2,
            "internal_chunk_id": "0-0.2-2.0-2",
            "time_elapsed": 83907,
            "key_press": 37,
            "type": "decision_first",
            "trial_index": 0,
            "trial_index_global": 14
        },
        {
            "rt": -1,
            "trial_type": "single-stim",
            "stimulus": "<div class = 'selected decision-left' style='background:#F1B8D4; width:330px;height:230px;'><img class = 'decision-stim' src= 'images/81.png'></div><div class = 'decision-right fade' style='background:#F1B8D4; width:330px;height:230px;'><img class = 'decision-stim  fade' src= 'images/82.png'></div>",
            "internal_chunk_id": "0-0.2-2.0-2",
            "time_elapsed": 84908,
            "key_press": -1,
            "trial_index": 0,
            "trial_index_global": 15
        },
        {
            "rt": 401,
            "trial_type": "single-stim",
            "stimulus": "<div class = 'decision-top-background faded' style='background:#F1B8D4; width:330px;height:230px;'><img class = 'decision-stim' src= 'images/81.png'></div><div class = decision-left style='background:#E0C2FF; width:330px;height:230px;'><img class = 'decision-stim' src= 'images/83.png'></img></div><div class = decision-right style='background:#E0C2FF; width:330px;height:230px;'><img class = 'decision-stim' src= 'images/85.png'></img></div>",
            "trial_count": 2,
            "internal_chunk_id": "0-0.2-2",
            "time_elapsed": 85448,
            "key_press": 39,
            "type": "decision_second",
            "trial_index": 0,
            "trial_index_global": 16
        },
        {
            "rt": -1,
            "trial_type": "single-stim",
            "stimulus": "<div class = 'decision-right selected' style='background:#E0C2FF; width:330px;height:230px;'><img class = 'decision-stim' src= 'images/85.png'></div><div class = 'fade decision-left' style='background:#E0C2FF; width:330px;height:230px;'><img class = 'decision-stim' src= 'images/83.png'></div>",
            "internal_chunk_id": "0-0.2-2.2-2",
            "time_elapsed": 86460,
            "key_press": -1,
            "trial_index": 0,
            "trial_index_global": 17
        },
        {
            "rt": -1,
            "trial_type": "single-stim",
            "stimulus": "<div class = 'decision-top-background faded' style='background:#E0C2FF; width:330px;height:230px;'><img class = 'decision-stim' src= 'images/85.png'></div><div style = text-align:center><p class = decision-fb style = 'color:red;font-size:60px'>0</p></div>",
            "trial_count": 2,
            "internal_chunk_id": "0-0.2-2.2-2",
            "time_elapsed": 86966,
            "key_press": -1,
            "type": "decision_FB",
            "trial_index": 0,
            "trial_index_global": 18
        },
        {
            "rt": -1,
            "trial_type": "single-stim",
            "stimulus": "",
            "internal_chunk_id": "0-0.2-2.2-2",
            "time_elapsed": 87969,
            "key_press": -1,
            "trial_index": 0,
            "trial_index_global": 19
        },
        {
            "rt": 621,
            "trial_type": "single-stim",
            "stimulus": "<div class = decision-left style='background:#F1B8D4; width:330px;height:230px;'><img class = 'decision-stim' src= 'images/82.png'></img></div><div class = decision-right style='background:#F1B8D4; width:330px;height:230px;'><img class = 'decision-stim' src= 'images/81.png'></img></div>",
            "trial_count": 3,
            "internal_chunk_id": "0-0.2-3.0-3",
            "time_elapsed": 88729,
            "key_press": 39,
            "type": "decision_first",
            "trial_index": 0,
            "trial_index_global": 20
        },
        {
            "rt": -1,
            "trial_type": "single-stim",
            "stimulus": "<div class = 'selected decision-right' style='background:#F1B8D4; width:330px;height:230px;'><img class = 'decision-stim' src= 'images/81.png'></div><div class = 'decision-left fade' style='background:#F1B8D4; width:330px;height:230px;'><img class = 'decision-stim  fade' src= 'images/82.png'></div>",
            "internal_chunk_id": "0-0.2-3.0-3",
            "time_elapsed": 89741,
            "key_press": -1,
            "trial_index": 0,
            "trial_index_global": 21
        },
        {
            "rt": 963,
            "trial_type": "single-stim",
            "stimulus": "<div class = 'decision-top-background faded' style='background:#F1B8D4; width:330px;height:230px;'><img class = 'decision-stim' src= 'images/81.png'></div><div class = decision-left style='background:#CCFF99; width:330px;height:230px;'><img class = 'decision-stim' src= 'images/84.png'></img></div><div class = decision-right style='background:#CCFF99; width:330px;height:230px;'><img class = 'decision-stim' src= 'images/80.png'></img></div>",
            "trial_count": 3,
            "internal_chunk_id": "0-0.2-3",
            "time_elapsed": 90826,
            "key_press": 39,
            "type": "decision_second",
            "trial_index": 0,
            "trial_index_global": 22
        },
        {
            "rt": -1,
            "trial_type": "single-stim",
            "stimulus": "<div class = 'decision-right selected' style='background:#CCFF99; width:330px;height:230px;'><img class = 'decision-stim' src= 'images/80.png'></div><div class = 'fade decision-left' style='background:#CCFF99; width:330px;height:230px;'><img class = 'decision-stim' src= 'images/84.png'></div>",
            "internal_chunk_id": "0-0.2-3.2-3",
            "time_elapsed": 91832,
            "key_press": -1,
            "trial_index": 0,
            "trial_index_global": 23
        },
        {
            "rt": -1,
            "trial_type": "single-stim",
            "stimulus": "<div class = 'decision-top-background faded' style='background:#CCFF99; width:330px;height:230px;'><img class = 'decision-stim' src= 'images/80.png'></div><div style = text-align:center><p class = decision-fb style = 'color:red;font-size:60px'>0</p></div>",
            "trial_count": 3,
            "internal_chunk_id": "0-0.2-3.2-3",
            "time_elapsed": 92331,
            "key_press": -1,
            "type": "decision_FB",
            "trial_index": 0,
            "trial_index_global": 24
        },
        {
            "rt": -1,
            "trial_type": "single-stim",
            "stimulus": "",
            "internal_chunk_id": "0-0.2-3.2-3",
            "time_elapsed": 93339,
            "key_press": -1,
            "trial_index": 0,
            "trial_index_global": 25
        },
        {
            "rt": 624,
            "trial_type": "single-stim",
            "stimulus": "<div class = decision-left style='background:#F1B8D4; width:330px;height:230px;'><img class = 'decision-stim' src= 'images/81.png'></img></div><div class = decision-right style='background:#F1B8D4; width:330px;height:230px;'><img class = 'decision-stim' src= 'images/82.png'></img></div>",
            "trial_count": 4,
            "internal_chunk_id": "0-0.2-4.0-4",
            "time_elapsed": 94069,
            "key_press": 37,
            "type": "decision_first",
            "trial_index": 0,
            "trial_index_global": 26
        },
        {
            "rt": -1,
            "trial_type": "single-stim",
            "stimulus": "<div class = 'selected decision-left' style='background:#F1B8D4; width:330px;height:230px;'><img class = 'decision-stim' src= 'images/81.png'></div><div class = 'decision-right fade' style='background:#F1B8D4; width:330px;height:230px;'><img class = 'decision-stim  fade' src= 'images/82.png'></div>",
            "internal_chunk_id": "0-0.2-4.0-4",
            "time_elapsed": 95079,
            "key_press": -1,
            "trial_index": 0,
            "trial_index_global": 27
        },
        {
            "rt": 935,
            "trial_type": "single-stim",
            "stimulus": "<div class = 'decision-top-background faded' style='background:#F1B8D4; width:330px;height:230px;'><img class = 'decision-stim' src= 'images/81.png'></div><div class = decision-left style='background:#CCFF99; width:330px;height:230px;'><img class = 'decision-stim' src= 'images/84.png'></img></div><div class = decision-right style='background:#CCFF99; width:330px;height:230px;'><img class = 'decision-stim' src= 'images/80.png'></img></div>",
            "trial_count": 4,
            "internal_chunk_id": "0-0.2-4",
            "time_elapsed": 96131,
            "key_press": 37,
            "type": "decision_second",
            "trial_index": 0,
            "trial_index_global": 28
        },
        {
            "rt": -1,
            "trial_type": "single-stim",
            "stimulus": "<div class = 'decision-left selected' style='background:#CCFF99; width:330px;height:230px;'><img class = 'decision-stim' src= 'images/84.png'></div><div class = 'fade decision-right' style='background:#CCFF99; width:330px;height:230px;'><img class = 'decision-stim' src= 'images/80.png'></div>",
            "internal_chunk_id": "0-0.2-4.2-4",
            "time_elapsed": 97147,
            "key_press": -1,
            "trial_index": 0,
            "trial_index_global": 29
        },
        {
            "rt": -1,
            "trial_type": "single-stim",
            "stimulus": "<div class = 'decision-top-background faded' style='background:#CCFF99; width:330px;height:230px;'><img class = 'decision-stim' src= 'images/84.png'></div><div style = text-align:center><p class = decision-fb style = 'color:red;font-size:60px'>0</p></div>",
            "trial_count": 4,
            "internal_chunk_id": "0-0.2-4.2-4",
            "time_elapsed": 97653,
            "key_press": -1,
            "type": "decision_FB",
            "trial_index": 0,
            "trial_index_global": 30
        },
        {
            "rt": -1,
            "trial_type": "single-stim",
            "stimulus": "",
            "internal_chunk_id": "0-0.2-4.2-4",
            "time_elapsed": 98655,
            "key_press": -1,
            "trial_index": 0,
            "trial_index_global": 31
        },
        {
            "rt": 599,
            "trial_type": "single-stim",
            "stimulus": "<div class = decision-left style='background:#F1B8D4; width:330px;height:230px;'><img class = 'decision-stim' src= 'images/82.png'></img></div><div class = decision-right style='background:#F1B8D4; width:330px;height:230px;'><img class = 'decision-stim' src= 'images/81.png'></img></div>",
            "trial_count": 5,
            "internal_chunk_id": "0-0.2-5.0-5",
            "time_elapsed": 99394,
            "key_press": 37,
            "type": "decision_first",
            "trial_index": 0,
            "trial_index_global": 32
        },
        {
            "rt": -1,
            "trial_type": "single-stim",
            "stimulus": "<div class = 'selected decision-left' style='background:#F1B8D4; width:330px;height:230px;'><img class = 'decision-stim' src= 'images/82.png'></div><div class = 'decision-right fade' style='background:#F1B8D4; width:330px;height:230px;'><img class = 'decision-stim  fade' src= 'images/81.png'></div>",
            "internal_chunk_id": "0-0.2-5.0-5",
            "time_elapsed": 100409,
            "key_press": -1,
            "trial_index": 0,
            "trial_index_global": 33
        },
        {
            "rt": 782,
            "trial_type": "single-stim",
            "stimulus": "<div class = 'decision-top-background faded' style='background:#F1B8D4; width:330px;height:230px;'><img class = 'decision-stim' src= 'images/82.png'></div><div class = decision-left style='background:#E0C2FF; width:330px;height:230px;'><img class = 'decision-stim' src= 'images/85.png'></img></div><div class = decision-right style='background:#E0C2FF; width:330px;height:230px;'><img class = 'decision-stim' src= 'images/83.png'></img></div>",
            "trial_count": 5,
            "internal_chunk_id": "0-0.2-5",
            "time_elapsed": 101333,
            "key_press": 39,
            "type": "decision_second",
            "trial_index": 0,
            "trial_index_global": 34
        },
        {
            "rt": -1,
            "trial_type": "single-stim",
            "stimulus": "<div class = 'decision-right selected' style='background:#E0C2FF; width:330px;height:230px;'><img class = 'decision-stim' src= 'images/83.png'></div><div class = 'fade decision-left' style='background:#E0C2FF; width:330px;height:230px;'><img class = 'decision-stim' src= 'images/85.png'></div>",
            "internal_chunk_id": "0-0.2-5.2-5",
            "time_elapsed": 102346,
            "key_press": -1,
            "trial_index": 0,
            "trial_index_global": 35
        },
        {
            "rt": -1,
            "trial_type": "single-stim",
            "stimulus": "<div class = 'decision-top-background faded' style='background:#E0C2FF; width:330px;height:230px;'><img class = 'decision-stim' src= 'images/83.png'></div><div style = text-align:center><p class = decision-fb style = 'color:red;font-size:60px'>0</p></div>",
            "trial_count": 5,
            "internal_chunk_id": "0-0.2-5.2-5",
            "time_elapsed": 102840,
            "key_press": -1,
            "type": "decision_FB",
            "trial_index": 0,
            "trial_index_global": 36
        },
        {
            "rt": -1,
            "trial_type": "single-stim",
            "stimulus": "",
            "internal_chunk_id": "0-0.2-5.2-5",
            "time_elapsed": 103844,
            "key_press": -1,
            "trial_index": 0,
            "trial_index_global": 37
        },
        {
            "rt": 615,
            "trial_type": "single-stim",
            "stimulus": "<div class = decision-left style='background:#F1B8D4; width:330px;height:230px;'><img class = 'decision-stim' src= 'images/81.png'></img></div><div class = decision-right style='background:#F1B8D4; width:330px;height:230px;'><img class = 'decision-stim' src= 'images/82.png'></img></div>",
            "trial_count": 6,
            "internal_chunk_id": "0-0.2-6.0-6",
            "time_elapsed": 104583,
            "key_press": 39,
            "type": "decision_first",
            "trial_index": 0,
            "trial_index_global": 38
        },
        {
            "rt": -1,
            "trial_type": "single-stim",
            "stimulus": "<div class = 'selected decision-right' style='background:#F1B8D4; width:330px;height:230px;'><img class = 'decision-stim' src= 'images/82.png'></div><div class = 'decision-left fade' style='background:#F1B8D4; width:330px;height:230px;'><img class = 'decision-stim  fade' src= 'images/81.png'></div>",
            "internal_chunk_id": "0-0.2-6.0-6",
            "time_elapsed": 105596,
            "key_press": -1,
            "trial_index": 0,
            "trial_index_global": 39
        },
        {
            "rt": 1011,
            "trial_type": "single-stim",
            "stimulus": "<div class = 'decision-top-background faded' style='background:#F1B8D4; width:330px;height:230px;'><img class = 'decision-stim' src= 'images/82.png'></div><div class = decision-left style='background:#CCFF99; width:330px;height:230px;'><img class = 'decision-stim' src= 'images/84.png'></img></div><div class = decision-right style='background:#CCFF99; width:330px;height:230px;'><img class = 'decision-stim' src= 'images/80.png'></img></div>",
            "trial_count": 6,
            "internal_chunk_id": "0-0.2-6",
            "time_elapsed": 106692,
            "key_press": 37,
            "type": "decision_second",
            "trial_index": 0,
            "trial_index_global": 40
        },
        {
            "rt": -1,
            "trial_type": "single-stim",
            "stimulus": "<div class = 'decision-left selected' style='background:#CCFF99; width:330px;height:230px;'><img class = 'decision-stim' src= 'images/84.png'></div><div class = 'fade decision-right' style='background:#CCFF99; width:330px;height:230px;'><img class = 'decision-stim' src= 'images/80.png'></div>",
            "internal_chunk_id": "0-0.2-6.2-6",
            "time_elapsed": 107708,
            "key_press": -1,
            "trial_index": 0,
            "trial_index_global": 41
        },
        {
            "rt": -1,
            "trial_type": "single-stim",
            "stimulus": "<div class = 'decision-top-background faded' style='background:#CCFF99; width:330px;height:230px;'><img class = 'decision-stim' src= 'images/84.png'></div><div><img  class = decision-fb src = 'images/gold_coin.png'></img></div>",
            "trial_count": 6,
            "internal_chunk_id": "0-0.2-6.2-6",
            "time_elapsed": 108199,
            "key_press": -1,
            "type": "decision_FB",
            "trial_index": 0,
            "trial_index_global": 42
        },
        {
            "rt": -1,
            "trial_type": "single-stim",
            "stimulus": "",
            "internal_chunk_id": "0-0.2-6.2-6",
            "time_elapsed": 109214,
            "key_press": -1,
            "trial_index": 0,
            "trial_index_global": 43
        },
        {
            "rt": 589,
            "trial_type": "single-stim",
            "stimulus": "<div class = decision-left style='background:#F1B8D4; width:330px;height:230px;'><img class = 'decision-stim' src= 'images/82.png'></img></div><div class = decision-right style='background:#F1B8D4; width:330px;height:230px;'><img class = 'decision-stim' src= 'images/81.png'></img></div>",
            "trial_count": 7,
            "internal_chunk_id": "0-0.2-7.0-7",
            "time_elapsed": 109937,
            "key_press": 37,
            "type": "decision_first",
            "trial_index": 0,
            "trial_index_global": 44
        },
        {
            "rt": -1,
            "trial_type": "single-stim",
            "stimulus": "<div class = 'selected decision-left' style='background:#F1B8D4; width:330px;height:230px;'><img class = 'decision-stim' src= 'images/82.png'></div><div class = 'decision-right fade' style='background:#F1B8D4; width:330px;height:230px;'><img class = 'decision-stim  fade' src= 'images/81.png'></div>",
            "internal_chunk_id": "0-0.2-7.0-7",
            "time_elapsed": 110941,
            "key_press": -1,
            "trial_index": 0,
            "trial_index_global": 45
        },
        {
            "rt": 601,
            "trial_type": "single-stim",
            "stimulus": "<div class = 'decision-top-background faded' style='background:#F1B8D4; width:330px;height:230px;'><img class = 'decision-stim' src= 'images/82.png'></div><div class = decision-left style='background:#CCFF99; width:330px;height:230px;'><img class = 'decision-stim' src= 'images/84.png'></img></div><div class = decision-right style='background:#CCFF99; width:330px;height:230px;'><img class = 'decision-stim' src= 'images/80.png'></img></div>",
            "trial_count": 7,
            "internal_chunk_id": "0-0.2-7",
            "time_elapsed": 111650,
            "key_press": 39,
            "type": "decision_second",
            "trial_index": 0,
            "trial_index_global": 46
        },
        {
            "rt": -1,
            "trial_type": "single-stim",
            "stimulus": "<div class = 'decision-right selected' style='background:#CCFF99; width:330px;height:230px;'><img class = 'decision-stim' src= 'images/80.png'></div><div class = 'fade decision-left' style='background:#CCFF99; width:330px;height:230px;'><img class = 'decision-stim' src= 'images/84.png'></div>",
            "internal_chunk_id": "0-0.2-7.2-7",
            "time_elapsed": 112693,
            "key_press": -1,
            "trial_index": 0,
            "trial_index_global": 47
        },
        {
            "rt": -1,
            "trial_type": "single-stim",
            "stimulus": "<div class = 'decision-top-background faded' style='background:#CCFF99; width:330px;height:230px;'><img class = 'decision-stim' src= 'images/80.png'></div><div style = text-align:center><p class = decision-fb style = 'color:red;font-size:60px'>0</p></div>",
            "trial_count": 7,
            "internal_chunk_id": "0-0.2-7.2-7",
            "time_elapsed": 113200,
            "key_press": -1,
            "type": "decision_FB",
            "trial_index": 0,
            "trial_index_global": 48
        },
        {
            "rt": -1,
            "trial_type": "single-stim",
            "stimulus": "",
            "internal_chunk_id": "0-0.2-7.2-7",
            "time_elapsed": 114201,
            "key_press": -1,
            "trial_index": 0,
            "trial_index_global": 49
        },
        {
            "rt": 534,
            "trial_type": "single-stim",
            "stimulus": "<div class = decision-left style='background:#F1B8D4; width:330px;height:230px;'><img class = 'decision-stim' src= 'images/82.png'></img></div><div class = decision-right style='background:#F1B8D4; width:330px;height:230px;'><img class = 'decision-stim' src= 'images/81.png'></img></div>",
            "trial_count": 8,
            "internal_chunk_id": "0-0.2-8.0-8",
            "time_elapsed": 114842,
            "key_press": 37,
            "type": "decision_first",
            "trial_index": 0,
            "trial_index_global": 50
        },
        {
            "rt": -1,
            "trial_type": "single-stim",
            "stimulus": "<div class = 'selected decision-left' style='background:#F1B8D4; width:330px;height:230px;'><img class = 'decision-stim' src= 'images/82.png'></div><div class = 'decision-right fade' style='background:#F1B8D4; width:330px;height:230px;'><img class = 'decision-stim  fade' src= 'images/81.png'></div>",
            "internal_chunk_id": "0-0.2-8.0-8",
            "time_elapsed": 115845,
            "key_press": -1,
            "trial_index": 0,
            "trial_index_global": 51
        },
        {
            "rt": 492,
            "trial_type": "single-stim",
            "stimulus": "<div class = 'decision-top-background faded' style='background:#F1B8D4; width:330px;height:230px;'><img class = 'decision-stim' src= 'images/82.png'></div><div class = decision-left style='background:#CCFF99; width:330px;height:230px;'><img class = 'decision-stim' src= 'images/84.png'></img></div><div class = decision-right style='background:#CCFF99; width:330px;height:230px;'><img class = 'decision-stim' src= 'images/80.png'></img></div>",
            "trial_count": 8,
            "internal_chunk_id": "0-0.2-8",
            "time_elapsed": 116448,
            "key_press": 37,
            "type": "decision_second",
            "trial_index": 0,
            "trial_index_global": 52
        },
        {
            "rt": -1,
            "trial_type": "single-stim",
            "stimulus": "<div class = 'decision-left selected' style='background:#CCFF99; width:330px;height:230px;'><img class = 'decision-stim' src= 'images/84.png'></div><div class = 'fade decision-right' style='background:#CCFF99; width:330px;height:230px;'><img class = 'decision-stim' src= 'images/80.png'></div>",
            "internal_chunk_id": "0-0.2-8.2-8",
            "time_elapsed": 117457,
            "key_press": -1,
            "trial_index": 0,
            "trial_index_global": 53
        },
        {
            "rt": -1,
            "trial_type": "single-stim",
            "stimulus": "<div class = 'decision-top-background faded' style='background:#CCFF99; width:330px;height:230px;'><img class = 'decision-stim' src= 'images/84.png'></div><div style = text-align:center><p class = decision-fb style = 'color:red;font-size:60px'>0</p></div>",
            "trial_count": 8,
            "internal_chunk_id": "0-0.2-8.2-8",
            "time_elapsed": 117950,
            "key_press": -1,
            "type": "decision_FB",
            "trial_index": 0,
            "trial_index_global": 54
        },
        {
            "rt": -1,
            "trial_type": "single-stim",
            "stimulus": "",
            "internal_chunk_id": "0-0.2-8.2-8",
            "time_elapsed": 118983,
            "key_press": -1,
            "trial_index": 0,
            "trial_index_global": 55
        },
        {
            "rt": 1062,
            "trial_type": "single-stim",
            "stimulus": "<div class = decision-left style='background:#F1B8D4; width:330px;height:230px;'><img class = 'decision-stim' src= 'images/81.png'></img></div><div class = decision-right style='background:#F1B8D4; width:330px;height:230px;'><img class = 'decision-stim' src= 'images/82.png'></img></div>",
            "trial_count": 9,
            "internal_chunk_id": "0-0.2-9.0-9",
            "time_elapsed": 120193,
            "key_press": 37,
            "type": "decision_first",
            "trial_index": 0,
            "trial_index_global": 56
        },
        {
            "rt": -1,
            "trial_type": "single-stim",
            "stimulus": "<div class = 'selected decision-left' style='background:#F1B8D4; width:330px;height:230px;'><img class = 'decision-stim' src= 'images/81.png'></div><div class = 'decision-right fade' style='background:#F1B8D4; width:330px;height:230px;'><img class = 'decision-stim  fade' src= 'images/82.png'></div>",
            "internal_chunk_id": "0-0.2-9.0-9",
            "time_elapsed": 121208,
            "key_press": -1,
            "trial_index": 0,
            "trial_index_global": 57
        },
        {
            "rt": 910,
            "trial_type": "single-stim",
            "stimulus": "<div class = 'decision-top-background faded' style='background:#F1B8D4; width:330px;height:230px;'><img class = 'decision-stim' src= 'images/81.png'></div><div class = decision-left style='background:#E0C2FF; width:330px;height:230px;'><img class = 'decision-stim' src= 'images/83.png'></img></div><div class = decision-right style='background:#E0C2FF; width:330px;height:230px;'><img class = 'decision-stim' src= 'images/85.png'></img></div>",
            "trial_count": 9,
            "internal_chunk_id": "0-0.2-9",
            "time_elapsed": 122244,
            "key_press": 39,
            "type": "decision_second",
            "trial_index": 0,
            "trial_index_global": 58
        },
        {
            "rt": -1,
            "trial_type": "single-stim",
            "stimulus": "<div class = 'decision-right selected' style='background:#E0C2FF; width:330px;height:230px;'><img class = 'decision-stim' src= 'images/85.png'></div><div class = 'fade decision-left' style='background:#E0C2FF; width:330px;height:230px;'><img class = 'decision-stim' src= 'images/83.png'></div>",
            "internal_chunk_id": "0-0.2-9.2-9",
            "time_elapsed": 123255,
            "key_press": -1,
            "trial_index": 0,
            "trial_index_global": 59
        },
        {
            "rt": -1,
            "trial_type": "single-stim",
            "stimulus": "<div class = 'decision-top-background faded' style='background:#E0C2FF; width:330px;height:230px;'><img class = 'decision-stim' src= 'images/85.png'></div><div><img  class = decision-fb src = 'images/gold_coin.png'></img></div>",
            "trial_count": 9,
            "internal_chunk_id": "0-0.2-9.2-9",
            "time_elapsed": 123749,
            "key_press": -1,
            "type": "decision_FB",
            "trial_index": 0,
            "trial_index_global": 60
        },
        {
            "rt": -1,
            "trial_type": "single-stim",
            "stimulus": "",
            "internal_chunk_id": "0-0.2-9.2-9",
            "time_elapsed": 124748,
            "key_press": -1,
            "trial_index": 0,
            "trial_index_global": 61
        },
        {
            "rt": 23317,
            "trial_type": "text",
            "internal_chunk_id": "0-0",
            "time_elapsed": 148123,
            "key_press": 13,
            "trial_index": 0,
            "trial_index_global": 62
        },
        {
            "rt": -1,
            "trial_type": "single-stim",
            "stimulus": "",
            "internal_chunk_id": "0-0",
            "time_elapsed": 149142,
            "key_press": -1,
            "global_params": {
                "second_stage_stim": {
                    "stimulus": [
                        "<div class = decision-left style='background:#98bf21; width:330px;height:230px;'><img class = 'decision-stim' src= 'images/12.png'></img></div><div class = decision-right style='background:#98bf21; width:330px;height:230px;'><img class = 'decision-stim' src= 'images/15.png'></img></div>",
                        "<div class = decision-left style='background:#98bf21; width:330px;height:230px;'><img class = 'decision-stim' src= 'images/15.png'></img></div><div class = decision-right style='background:#98bf21; width:330px;height:230px;'><img class = 'decision-stim' src= 'images/12.png'></img></div>",
                        "<div class = decision-left style='background:#C2C2FF; width:330px;height:230px;'><img class = 'decision-stim' src= 'images/13.png'></img></div><div class = decision-right style='background:#C2C2FF; width:330px;height:230px;'><img class = 'decision-stim' src= 'images/11.png'></img></div>",
                        "<div class = decision-left style='background:#C2C2FF; width:330px;height:230px;'><img class = 'decision-stim' src= 'images/11.png'></img></div><div class = decision-right style='background:#C2C2FF; width:330px;height:230px;'><img class = 'decision-stim' src= 'images/13.png'></img></div>"
                    ],
                    "id": [
                        [
                            2,
                            3
                        ],
                        [
                            3,
                            2
                        ],
                        [
                            4,
                            5
                        ],
                        [
                            5,
                            4
                        ]
                    ]
                },
                "stims": [
                    "images/14.png",
                    "images/16.png",
                    "images/12.png",
                    "images/15.png",
                    "images/13.png",
                    "images/11.png"
                ],
                "fs_stim": [
                    {
                        "stimulus": "<div class = decision-left style='background:#FF9966; width:330px;height:230px;'><img class = 'decision-stim' src= 'images/14.png'></img></div><div class = decision-right style='background:#FF9966; width:330px;height:230px;'><img class = 'decision-stim' src= 'images/16.png'></img></div>",
                        "id": [
                            0,
                            1
                        ]
                    },
                    {
                        "stimulus": "<div class = decision-left style='background:#FF9966; width:330px;height:230px;'><img class = 'decision-stim' src= 'images/16.png'></img></div><div class = decision-right style='background:#FF9966; width:330px;height:230px;'><img class = 'decision-stim' src= 'images/14.png'></img></div>",
                        "id": [
                            1,
                            0
                        ]
                    }
                ],
                "condition": "test",
                "actions": [
                    37,
                    39
                ]
            },
            "type": "decision_global",
            "trial_index": 0,
            "trial_index_global": 63
        },
        {
            "rt": 1587,
            "trial_type": "single-stim",
            "stimulus": "<div class = decision-left style='background:#FF9966; width:330px;height:230px;'><img class = 'decision-stim' src= 'images/16.png'></img></div><div class = decision-right style='background:#FF9966; width:330px;height:230px;'><img class = 'decision-stim' src= 'images/14.png'></img></div>",
            "trial_count": 0,
            "internal_chunk_id": "0-0.5-0.0-0",
            "time_elapsed": 150810,
            "key_press": 39,
            "type": "decision_first",
            "trial_index": 0,
            "trial_index_global": 64
        },
        {
            "rt": -1,
            "trial_type": "single-stim",
            "stimulus": "<div class = 'selected decision-right' style='background:#FF9966; width:330px;height:230px;'><img class = 'decision-stim' src= 'images/14.png'></div><div class = 'decision-left fade' style='background:#FF9966; width:330px;height:230px;'><img class = 'decision-stim  fade' src= 'images/16.png'></div>",
            "internal_chunk_id": "0-0.5-0.0-0",
            "time_elapsed": 151829,
            "key_press": -1,
            "trial_index": 0,
            "trial_index_global": 65
        },
        {
            "rt": 745,
            "trial_type": "single-stim",
            "stimulus": "<div class = 'decision-top-background faded' style='background:#FF9966; width:330px;height:230px;'><img class = 'decision-stim' src= 'images/14.png'></div><div class = decision-left style='background:#98bf21; width:330px;height:230px;'><img class = 'decision-stim' src= 'images/12.png'></img></div><div class = decision-right style='background:#98bf21; width:330px;height:230px;'><img class = 'decision-stim' src= 'images/15.png'></img></div>",
            "trial_count": 0,
            "internal_chunk_id": "0-0.5-0",
            "time_elapsed": 152686,
            "key_press": 37,
            "type": "decision_second",
            "trial_index": 0,
            "trial_index_global": 66
        },
        {
            "rt": -1,
            "trial_type": "single-stim",
            "stimulus": "<div class = 'decision-left selected' style='background:#98bf21; width:330px;height:230px;'><img class = 'decision-stim' src= 'images/12.png'></div><div class = 'fade decision-right' style='background:#98bf21; width:330px;height:230px;'><img class = 'decision-stim' src= 'images/15.png'></div>",
            "internal_chunk_id": "0-0.5-0.2-0",
            "time_elapsed": 153698,
            "key_press": -1,
            "trial_index": 0,
            "trial_index_global": 67
        },
        {
            "rt": -1,
            "trial_type": "single-stim",
            "stimulus": "<div class = 'decision-top-background faded' style='background:#98bf21; width:330px;height:230px;'><img class = 'decision-stim' src= 'images/12.png'></div><div style = text-align:center><p class = decision-fb style = 'color:red;font-size:60px'>0</p></div>",
            "trial_count": 0,
            "internal_chunk_id": "0-0.5-0.2-0",
            "time_elapsed": 154199,
            "key_press": -1,
            "type": "decision_FB",
            "trial_index": 0,
            "trial_index_global": 68
        },
        {
            "rt": -1,
            "trial_type": "single-stim",
            "stimulus": "",
            "internal_chunk_id": "0-0.5-0.2-0",
            "time_elapsed": 155200,
            "key_press": -1,
            "trial_index": 0,
            "trial_index_global": 69
        },
        {
            "rt": 873,
            "trial_type": "single-stim",
            "stimulus": "<div class = decision-left style='background:#FF9966; width:330px;height:230px;'><img class = 'decision-stim' src= 'images/14.png'></img></div><div class = decision-right style='background:#FF9966; width:330px;height:230px;'><img class = 'decision-stim' src= 'images/16.png'></img></div>",
            "trial_count": 1,
            "internal_chunk_id": "0-0.5-1.0-1",
            "time_elapsed": 156197,
            "key_press": 37,
            "type": "decision_first",
            "trial_index": 0,
            "trial_index_global": 70
        },
        {
            "rt": -1,
            "trial_type": "single-stim",
            "stimulus": "<div class = 'selected decision-left' style='background:#FF9966; width:330px;height:230px;'><img class = 'decision-stim' src= 'images/14.png'></div><div class = 'decision-right fade' style='background:#FF9966; width:330px;height:230px;'><img class = 'decision-stim  fade' src= 'images/16.png'></div>",
            "internal_chunk_id": "0-0.5-1.0-1",
            "time_elapsed": 157205,
            "key_press": -1,
            "trial_index": 0,
            "trial_index_global": 71
        },
        {
            "rt": 1302,
            "trial_type": "single-stim",
            "stimulus": "<div class = 'decision-top-background faded' style='background:#FF9966; width:330px;height:230px;'><img class = 'decision-stim' src= 'images/14.png'></div><div class = decision-left style='background:#98bf21; width:330px;height:230px;'><img class = 'decision-stim' src= 'images/15.png'></img></div><div class = decision-right style='background:#98bf21; width:330px;height:230px;'><img class = 'decision-stim' src= 'images/12.png'></img></div>",
            "trial_count": 1,
            "internal_chunk_id": "0-0.5-1",
            "time_elapsed": 158610,
            "key_press": 37,
            "type": "decision_second",
            "trial_index": 0,
            "trial_index_global": 72
        },
        {
            "rt": -1,
            "trial_type": "single-stim",
            "stimulus": "<div class = 'decision-left selected' style='background:#98bf21; width:330px;height:230px;'><img class = 'decision-stim' src= 'images/15.png'></div><div class = 'fade decision-right' style='background:#98bf21; width:330px;height:230px;'><img class = 'decision-stim' src= 'images/12.png'></div>",
            "internal_chunk_id": "0-0.5-1.2-1",
            "time_elapsed": 159632,
            "key_press": -1,
            "trial_index": 0,
            "trial_index_global": 73
        },
        {
            "rt": -1,
            "trial_type": "single-stim",
            "stimulus": "<div class = 'decision-top-background faded' style='background:#98bf21; width:330px;height:230px;'><img class = 'decision-stim' src= 'images/15.png'></div><div><img  class = decision-fb src = 'images/gold_coin.png'></img></div>",
            "trial_count": 1,
            "internal_chunk_id": "0-0.5-1.2-1",
            "time_elapsed": 160137,
            "key_press": -1,
            "type": "decision_FB",
            "trial_index": 0,
            "trial_index_global": 74
        },
        {
            "rt": -1,
            "trial_type": "single-stim",
            "stimulus": "",
            "internal_chunk_id": "0-0.5-1.2-1",
            "time_elapsed": 161155,
            "key_press": -1,
            "trial_index": 0,
            "trial_index_global": 75
        },
        {
            "rt": 686,
            "trial_type": "single-stim",
            "stimulus": "<div class = decision-left style='background:#FF9966; width:330px;height:230px;'><img class = 'decision-stim' src= 'images/14.png'></img></div><div class = decision-right style='background:#FF9966; width:330px;height:230px;'><img class = 'decision-stim' src= 'images/16.png'></img></div>",
            "trial_count": 2,
            "internal_chunk_id": "0-0.5-2.0-2",
            "time_elapsed": 161963,
            "key_press": 37,
            "type": "decision_first",
            "trial_index": 0,
            "trial_index_global": 76
        },
        {
            "rt": -1,
            "trial_type": "single-stim",
            "stimulus": "<div class = 'selected decision-left' style='background:#FF9966; width:330px;height:230px;'><img class = 'decision-stim' src= 'images/14.png'></div><div class = 'decision-right fade' style='background:#FF9966; width:330px;height:230px;'><img class = 'decision-stim  fade' src= 'images/16.png'></div>",
            "internal_chunk_id": "0-0.5-2.0-2",
            "time_elapsed": 162972,
            "key_press": -1,
            "trial_index": 0,
            "trial_index_global": 77
        },
        {
            "rt": -1,
            "trial_type": "single-stim",
            "stimulus": "<div class = 'decision-top-background faded' style='background:#FF9966; width:330px;height:230px;'><img class = 'decision-stim' src= 'images/14.png'></div><div class = decision-left style='background:#C2C2FF; width:330px;height:230px;'><img class = 'decision-stim' src= 'images/13.png'></img></div><div class = decision-right style='background:#C2C2FF; width:330px;height:230px;'><img class = 'decision-stim' src= 'images/11.png'></img></div>",
            "trial_count": 2,
            "internal_chunk_id": "0-0.5-2",
            "time_elapsed": 164983,
            "key_press": -1,
            "type": "decision_second",
            "trial_index": 0,
            "trial_index_global": 78
        },
        {
            "rt": 268,
            "trial_type": "single-stim",
            "internal_chunk_id": "0-0.5-2.2-2",
            "time_elapsed": 166000,
            "key_press": 37,
            "trial_index": 0,
            "trial_index_global": 79
        },
        {
            "rt": -1,
            "trial_type": "single-stim",
            "stimulus": "<div class = centerbox style = text-align:center><p style = font-size:30px>Please respond faster </p></div>",
            "trial_count": 2,
            "internal_chunk_id": "0-0.5-2.2-2",
            "time_elapsed": 166499,
            "key_press": -1,
            "type": "decision_FB",
            "trial_index": 0,
            "trial_index_global": 80
        },
        {
            "rt": -1,
            "trial_type": "single-stim",
            "stimulus": "",
            "internal_chunk_id": "0-0.5-2.2-2",
            "time_elapsed": 167497,
            "key_press": -1,
            "trial_index": 0,
            "trial_index_global": 81
        },
        {
            "rt": 574,
            "trial_type": "single-stim",
            "stimulus": "<div class = decision-left style='background:#FF9966; width:330px;height:230px;'><img class = 'decision-stim' src= 'images/16.png'></img></div><div class = decision-right style='background:#FF9966; width:330px;height:230px;'><img class = 'decision-stim' src= 'images/14.png'></img></div>",
            "trial_count": 3,
            "internal_chunk_id": "0-0.5-3.0-3",
            "time_elapsed": 168190,
            "key_press": 37,
            "type": "decision_first",
            "trial_index": 0,
            "trial_index_global": 82
        },
        {
            "rt": -1,
            "trial_type": "single-stim",
            "stimulus": "<div class = 'selected decision-left' style='background:#FF9966; width:330px;height:230px;'><img class = 'decision-stim' src= 'images/16.png'></div><div class = 'decision-right fade' style='background:#FF9966; width:330px;height:230px;'><img class = 'decision-stim  fade' src= 'images/14.png'></div>",
            "internal_chunk_id": "0-0.5-3.0-3",
            "time_elapsed": 169206,
            "key_press": -1,
            "trial_index": 0,
            "trial_index_global": 83
        },
        {
            "rt": 323,
            "trial_type": "single-stim",
            "stimulus": "<div class = 'decision-top-background faded' style='background:#FF9966; width:330px;height:230px;'><img class = 'decision-stim' src= 'images/16.png'></div><div class = decision-left style='background:#C2C2FF; width:330px;height:230px;'><img class = 'decision-stim' src= 'images/11.png'></img></div><div class = decision-right style='background:#C2C2FF; width:330px;height:230px;'><img class = 'decision-stim' src= 'images/13.png'></img></div>",
            "trial_count": 3,
            "internal_chunk_id": "0-0.5-3",
            "time_elapsed": 169679,
            "key_press": 39,
            "type": "decision_second",
            "trial_index": 0,
            "trial_index_global": 84
        },
        {
            "rt": -1,
            "trial_type": "single-stim",
            "stimulus": "<div class = 'decision-right selected' style='background:#C2C2FF; width:330px;height:230px;'><img class = 'decision-stim' src= 'images/13.png'></div><div class = 'fade decision-left' style='background:#C2C2FF; width:330px;height:230px;'><img class = 'decision-stim' src= 'images/11.png'></div>",
            "internal_chunk_id": "0-0.5-3.2-3",
            "time_elapsed": 170691,
            "key_press": -1,
            "trial_index": 0,
            "trial_index_global": 85
        },
        {
            "rt": -1,
            "trial_type": "single-stim",
            "stimulus": "<div class = 'decision-top-background faded' style='background:#C2C2FF; width:330px;height:230px;'><img class = 'decision-stim' src= 'images/13.png'></div><div style = text-align:center><p class = decision-fb style = 'color:red;font-size:60px'>0</p></div>",
            "trial_count": 3,
            "internal_chunk_id": "0-0.5-3.2-3",
            "time_elapsed": 171206,
            "key_press": -1,
            "type": "decision_FB",
            "trial_index": 0,
            "trial_index_global": 86
        },
        {
            "rt": -1,
            "trial_type": "single-stim",
            "stimulus": "",
            "internal_chunk_id": "0-0.5-3.2-3",
            "time_elapsed": 172202,
            "key_press": -1,
            "trial_index": 0,
            "trial_index_global": 87
        },
        {
            "rt": 505,
            "trial_type": "single-stim",
            "stimulus": "<div class = decision-left style='background:#FF9966; width:330px;height:230px;'><img class = 'decision-stim' src= 'images/16.png'></img></div><div class = decision-right style='background:#FF9966; width:330px;height:230px;'><img class = 'decision-stim' src= 'images/14.png'></img></div>",
            "trial_count": 4,
            "internal_chunk_id": "0-0.5-4.0-4",
            "time_elapsed": 172807,
            "key_press": 39,
            "type": "decision_first",
            "trial_index": 0,
            "trial_index_global": 88
        },
        {
            "rt": -1,
            "trial_type": "single-stim",
            "stimulus": "<div class = 'selected decision-right' style='background:#FF9966; width:330px;height:230px;'><img class = 'decision-stim' src= 'images/14.png'></div><div class = 'decision-left fade' style='background:#FF9966; width:330px;height:230px;'><img class = 'decision-stim  fade' src= 'images/16.png'></div>",
            "internal_chunk_id": "0-0.5-4.0-4",
            "time_elapsed": 173820,
            "key_press": -1,
            "trial_index": 0,
            "trial_index_global": 89
        },
        {
            "rt": 507,
            "trial_type": "single-stim",
            "stimulus": "<div class = 'decision-top-background faded' style='background:#FF9966; width:330px;height:230px;'><img class = 'decision-stim' src= 'images/14.png'></div><div class = decision-left style='background:#C2C2FF; width:330px;height:230px;'><img class = 'decision-stim' src= 'images/13.png'></img></div><div class = decision-right style='background:#C2C2FF; width:330px;height:230px;'><img class = 'decision-stim' src= 'images/11.png'></img></div>",
            "trial_count": 4,
            "internal_chunk_id": "0-0.5-4",
            "time_elapsed": 174430,
            "key_press": 37,
            "type": "decision_second",
            "trial_index": 0,
            "trial_index_global": 90
        },
        {
            "rt": -1,
            "trial_type": "single-stim",
            "stimulus": "<div class = 'decision-left selected' style='background:#C2C2FF; width:330px;height:230px;'><img class = 'decision-stim' src= 'images/13.png'></div><div class = 'fade decision-right' style='background:#C2C2FF; width:330px;height:230px;'><img class = 'decision-stim' src= 'images/11.png'></div>",
            "internal_chunk_id": "0-0.5-4.2-4",
            "time_elapsed": 175443,
            "key_press": -1,
            "trial_index": 0,
            "trial_index_global": 91
        },
        {
            "rt": -1,
            "trial_type": "single-stim",
            "stimulus": "<div class = 'decision-top-background faded' style='background:#C2C2FF; width:330px;height:230px;'><img class = 'decision-stim' src= 'images/13.png'></div><div style = text-align:center><p class = decision-fb style = 'color:red;font-size:60px'>0</p></div>",
            "trial_count": 4,
            "internal_chunk_id": "0-0.5-4.2-4",
            "time_elapsed": 175953,
            "key_press": -1,
            "type": "decision_FB",
            "trial_index": 0,
            "trial_index_global": 92
        },
        {
            "rt": -1,
            "trial_type": "single-stim",
            "stimulus": "",
            "internal_chunk_id": "0-0.5-4.2-4",
            "time_elapsed": 176959,
            "key_press": -1,
            "trial_index": 0,
            "trial_index_global": 93
        },
        {
            "rt": 423,
            "trial_type": "single-stim",
            "stimulus": "<div class = decision-left style='background:#FF9966; width:330px;height:230px;'><img class = 'decision-stim' src= 'images/14.png'></img></div><div class = decision-right style='background:#FF9966; width:330px;height:230px;'><img class = 'decision-stim' src= 'images/16.png'></img></div>",
            "trial_count": 5,
            "internal_chunk_id": "0-0.5-5.0-5",
            "time_elapsed": 177489,
            "key_press": 37,
            "type": "decision_first",
            "trial_index": 0,
            "trial_index_global": 94
        },
        {
            "rt": -1,
            "trial_type": "single-stim",
            "stimulus": "<div class = 'selected decision-left' style='background:#FF9966; width:330px;height:230px;'><img class = 'decision-stim' src= 'images/14.png'></div><div class = 'decision-right fade' style='background:#FF9966; width:330px;height:230px;'><img class = 'decision-stim  fade' src= 'images/16.png'></div>",
            "internal_chunk_id": "0-0.5-5.0-5",
            "time_elapsed": 178497,
            "key_press": -1,
            "trial_index": 0,
            "trial_index_global": 95
        },
        {
            "rt": 471,
            "trial_type": "single-stim",
            "stimulus": "<div class = 'decision-top-background faded' style='background:#FF9966; width:330px;height:230px;'><img class = 'decision-stim' src= 'images/14.png'></div><div class = decision-left style='background:#C2C2FF; width:330px;height:230px;'><img class = 'decision-stim' src= 'images/11.png'></img></div><div class = decision-right style='background:#C2C2FF; width:330px;height:230px;'><img class = 'decision-stim' src= 'images/13.png'></img></div>",
            "trial_count": 5,
            "internal_chunk_id": "0-0.5-5",
            "time_elapsed": 179067,
            "key_press": 39,
            "type": "decision_second",
            "trial_index": 0,
            "trial_index_global": 96
        },
        {
            "rt": -1,
            "trial_type": "single-stim",
            "stimulus": "<div class = 'decision-right selected' style='background:#C2C2FF; width:330px;height:230px;'><img class = 'decision-stim' src= 'images/13.png'></div><div class = 'fade decision-left' style='background:#C2C2FF; width:330px;height:230px;'><img class = 'decision-stim' src= 'images/11.png'></div>",
            "internal_chunk_id": "0-0.5-5.2-5",
            "time_elapsed": 180078,
            "key_press": -1,
            "trial_index": 0,
            "trial_index_global": 97
        },
        {
            "rt": -1,
            "trial_type": "single-stim",
            "stimulus": "<div class = 'decision-top-background faded' style='background:#C2C2FF; width:330px;height:230px;'><img class = 'decision-stim' src= 'images/13.png'></div><div><img  class = decision-fb src = 'images/gold_coin.png'></img></div>",
            "trial_count": 5,
            "internal_chunk_id": "0-0.5-5.2-5",
            "time_elapsed": 180579,
            "key_press": -1,
            "type": "decision_FB",
            "trial_index": 0,
            "trial_index_global": 98
        },
        {
            "rt": -1,
            "trial_type": "single-stim",
            "stimulus": "",
            "internal_chunk_id": "0-0.5-5.2-5",
            "time_elapsed": 181582,
            "key_press": -1,
            "trial_index": 0,
            "trial_index_global": 99
        },
        {
            "rt": 423,
            "trial_type": "single-stim",
            "stimulus": "<div class = decision-left style='background:#FF9966; width:330px;height:230px;'><img class = 'decision-stim' src= 'images/16.png'></img></div><div class = decision-right style='background:#FF9966; width:330px;height:230px;'><img class = 'decision-stim' src= 'images/14.png'></img></div>",
            "trial_count": 6,
            "internal_chunk_id": "0-0.5-6.0-6",
            "time_elapsed": 182106,
            "key_press": 39,
            "type": "decision_first",
            "trial_index": 0,
            "trial_index_global": 100
        },
        {
            "rt": -1,
            "trial_type": "single-stim",
            "stimulus": "<div class = 'selected decision-right' style='background:#FF9966; width:330px;height:230px;'><img class = 'decision-stim' src= 'images/14.png'></div><div class = 'decision-left fade' style='background:#FF9966; width:330px;height:230px;'><img class = 'decision-stim  fade' src= 'images/16.png'></div>",
            "internal_chunk_id": "0-0.5-6.0-6",
            "time_elapsed": 183115,
            "key_press": -1,
            "trial_index": 0,
            "trial_index_global": 101
        },
        {
            "rt": 609,
            "trial_type": "single-stim",
            "stimulus": "<div class = 'decision-top-background faded' style='background:#FF9966; width:330px;height:230px;'><img class = 'decision-stim' src= 'images/14.png'></div><div class = decision-left style='background:#98bf21; width:330px;height:230px;'><img class = 'decision-stim' src= 'images/12.png'></img></div><div class = decision-right style='background:#98bf21; width:330px;height:230px;'><img class = 'decision-stim' src= 'images/15.png'></img></div>",
            "trial_count": 6,
            "internal_chunk_id": "0-0.5-6",
            "time_elapsed": 183799,
            "key_press": 37,
            "type": "decision_second",
            "trial_index": 0,
            "trial_index_global": 102
        },
        {
            "rt": -1,
            "trial_type": "single-stim",
            "stimulus": "<div class = 'decision-left selected' style='background:#98bf21; width:330px;height:230px;'><img class = 'decision-stim' src= 'images/12.png'></div><div class = 'fade decision-right' style='background:#98bf21; width:330px;height:230px;'><img class = 'decision-stim' src= 'images/15.png'></div>",
            "internal_chunk_id": "0-0.5-6.2-6",
            "time_elapsed": 184801,
            "key_press": -1,
            "trial_index": 0,
            "trial_index_global": 103
        },
        {
            "rt": -1,
            "trial_type": "single-stim",
            "stimulus": "<div class = 'decision-top-background faded' style='background:#98bf21; width:330px;height:230px;'><img class = 'decision-stim' src= 'images/12.png'></div><div><img  class = decision-fb src = 'images/gold_coin.png'></img></div>",
            "trial_count": 6,
            "internal_chunk_id": "0-0.5-6.2-6",
            "time_elapsed": 185297,
            "key_press": -1,
            "type": "decision_FB",
            "trial_index": 0,
            "trial_index_global": 104
        },
        {
            "rt": -1,
            "trial_type": "single-stim",
            "stimulus": "",
            "internal_chunk_id": "0-0.5-6.2-6",
            "time_elapsed": 186295,
            "key_press": -1,
            "trial_index": 0,
            "trial_index_global": 105
        },
        {
            "rt": 400,
            "trial_type": "single-stim",
            "stimulus": "<div class = decision-left style='background:#FF9966; width:330px;height:230px;'><img class = 'decision-stim' src= 'images/14.png'></img></div><div class = decision-right style='background:#FF9966; width:330px;height:230px;'><img class = 'decision-stim' src= 'images/16.png'></img></div>",
            "trial_count": 7,
            "internal_chunk_id": "0-0.5-7.0-7",
            "time_elapsed": 186838,
            "key_press": 39,
            "type": "decision_first",
            "trial_index": 0,
            "trial_index_global": 106
        },
        {
            "rt": -1,
            "trial_type": "single-stim",
            "stimulus": "<div class = 'selected decision-right' style='background:#FF9966; width:330px;height:230px;'><img class = 'decision-stim' src= 'images/16.png'></div><div class = 'decision-left fade' style='background:#FF9966; width:330px;height:230px;'><img class = 'decision-stim  fade' src= 'images/14.png'></div>",
            "internal_chunk_id": "0-0.5-7.0-7",
            "time_elapsed": 187845,
            "key_press": -1,
            "trial_index": 0,
            "trial_index_global": 107
        },
        {
            "rt": 591,
            "trial_type": "single-stim",
            "stimulus": "<div class = 'decision-top-background faded' style='background:#FF9966; width:330px;height:230px;'><img class = 'decision-stim' src= 'images/16.png'></div><div class = decision-left style='background:#C2C2FF; width:330px;height:230px;'><img class = 'decision-stim' src= 'images/11.png'></img></div><div class = decision-right style='background:#C2C2FF; width:330px;height:230px;'><img class = 'decision-stim' src= 'images/13.png'></img></div>",
            "trial_count": 7,
            "internal_chunk_id": "0-0.5-7",
            "time_elapsed": 188546,
            "key_press": 37,
            "type": "decision_second",
            "trial_index": 0,
            "trial_index_global": 108
        },
        {
            "rt": -1,
            "trial_type": "single-stim",
            "stimulus": "<div class = 'decision-left selected' style='background:#C2C2FF; width:330px;height:230px;'><img class = 'decision-stim' src= 'images/11.png'></div><div class = 'fade decision-right' style='background:#C2C2FF; width:330px;height:230px;'><img class = 'decision-stim' src= 'images/13.png'></div>",
            "internal_chunk_id": "0-0.5-7.2-7",
            "time_elapsed": 189549,
            "key_press": -1,
            "trial_index": 0,
            "trial_index_global": 109
        },
        {
            "rt": -1,
            "trial_type": "single-stim",
            "stimulus": "<div class = 'decision-top-background faded' style='background:#C2C2FF; width:330px;height:230px;'><img class = 'decision-stim' src= 'images/11.png'></div><div><img  class = decision-fb src = 'images/gold_coin.png'></img></div>",
            "trial_count": 7,
            "internal_chunk_id": "0-0.5-7.2-7",
            "time_elapsed": 190050,
            "key_press": -1,
            "type": "decision_FB",
            "trial_index": 0,
            "trial_index_global": 110
        },
        {
            "rt": -1,
            "trial_type": "single-stim",
            "stimulus": "",
            "internal_chunk_id": "0-0.5-7.2-7",
            "time_elapsed": 191043,
            "key_press": -1,
            "trial_index": 0,
            "trial_index_global": 111
        },
        {
            "rt": 370,
            "trial_type": "single-stim",
            "stimulus": "<div class = decision-left style='background:#FF9966; width:330px;height:230px;'><img class = 'decision-stim' src= 'images/14.png'></img></div><div class = decision-right style='background:#FF9966; width:330px;height:230px;'><img class = 'decision-stim' src= 'images/16.png'></img></div>",
            "trial_count": 8,
            "internal_chunk_id": "0-0.5-8.0-8",
            "time_elapsed": 191511,
            "key_press": 37,
            "type": "decision_first",
            "trial_index": 0,
            "trial_index_global": 112
        },
        {
            "rt": -1,
            "trial_type": "single-stim",
            "stimulus": "<div class = 'selected decision-left' style='background:#FF9966; width:330px;height:230px;'><img class = 'decision-stim' src= 'images/14.png'></div><div class = 'decision-right fade' style='background:#FF9966; width:330px;height:230px;'><img class = 'decision-stim  fade' src= 'images/16.png'></div>",
            "internal_chunk_id": "0-0.5-8.0-8",
            "time_elapsed": 192516,
            "key_press": -1,
            "trial_index": 0,
            "trial_index_global": 113
        },
        {
            "rt": 878,
            "trial_type": "single-stim",
            "stimulus": "<div class = 'decision-top-background faded' style='background:#FF9966; width:330px;height:230px;'><img class = 'decision-stim' src= 'images/14.png'></div><div class = decision-left style='background:#98bf21; width:330px;height:230px;'><img class = 'decision-stim' src= 'images/12.png'></img></div><div class = decision-right style='background:#98bf21; width:330px;height:230px;'><img class = 'decision-stim' src= 'images/15.png'></img></div>",
            "trial_count": 8,
            "internal_chunk_id": "0-0.5-8",
            "time_elapsed": 193510,
            "key_press": 39,
            "type": "decision_second",
            "trial_index": 0,
            "trial_index_global": 114
        },
        {
            "rt": -1,
            "trial_type": "single-stim",
            "stimulus": "<div class = 'decision-right selected' style='background:#98bf21; width:330px;height:230px;'><img class = 'decision-stim' src= 'images/15.png'></div><div class = 'fade decision-left' style='background:#98bf21; width:330px;height:230px;'><img class = 'decision-stim' src= 'images/12.png'></div>",
            "internal_chunk_id": "0-0.5-8.2-8",
            "time_elapsed": 194517,
            "key_press": -1,
            "trial_index": 0,
            "trial_index_global": 115
        },
        {
            "rt": -1,
            "trial_type": "single-stim",
            "stimulus": "<div class = 'decision-top-background faded' style='background:#98bf21; width:330px;height:230px;'><img class = 'decision-stim' src= 'images/15.png'></div><div><img  class = decision-fb src = 'images/gold_coin.png'></img></div>",
            "trial_count": 8,
            "internal_chunk_id": "0-0.5-8.2-8",
            "time_elapsed": 195013,
            "key_press": -1,
            "type": "decision_FB",
            "trial_index": 0,
            "trial_index_global": 116
        },
        {
            "rt": -1,
            "trial_type": "single-stim",
            "stimulus": "",
            "internal_chunk_id": "0-0.5-8.2-8",
            "time_elapsed": 196014,
            "key_press": -1,
            "trial_index": 0,
            "trial_index_global": 117
        },
        {
            "rt": 460,
            "trial_type": "single-stim",
            "stimulus": "<div class = decision-left style='background:#FF9966; width:330px;height:230px;'><img class = 'decision-stim' src= 'images/14.png'></img></div><div class = decision-right style='background:#FF9966; width:330px;height:230px;'><img class = 'decision-stim' src= 'images/16.png'></img></div>",
            "trial_count": 9,
            "internal_chunk_id": "0-0.5-9.0-9",
            "time_elapsed": 196564,
            "key_press": 39,
            "type": "decision_first",
            "trial_index": 0,
            "trial_index_global": 118
        },
        {
            "rt": -1,
            "trial_type": "single-stim",
            "stimulus": "<div class = 'selected decision-right' style='background:#FF9966; width:330px;height:230px;'><img class = 'decision-stim' src= 'images/16.png'></div><div class = 'decision-left fade' style='background:#FF9966; width:330px;height:230px;'><img class = 'decision-stim  fade' src= 'images/14.png'></div>",
            "internal_chunk_id": "0-0.5-9.0-9",
            "time_elapsed": 197585,
            "key_press": -1,
            "trial_index": 0,
            "trial_index_global": 119
        },
        {
            "rt": 618,
            "trial_type": "single-stim",
            "stimulus": "<div class = 'decision-top-background faded' style='background:#FF9966; width:330px;height:230px;'><img class = 'decision-stim' src= 'images/16.png'></div><div class = decision-left style='background:#C2C2FF; width:330px;height:230px;'><img class = 'decision-stim' src= 'images/11.png'></img></div><div class = decision-right style='background:#C2C2FF; width:330px;height:230px;'><img class = 'decision-stim' src= 'images/13.png'></img></div>",
            "trial_count": 9,
            "internal_chunk_id": "0-0.5-9",
            "time_elapsed": 198297,
            "key_press": 37,
            "type": "decision_second",
            "trial_index": 0,
            "trial_index_global": 120
        },
        {
            "rt": -1,
            "trial_type": "single-stim",
            "stimulus": "<div class = 'decision-left selected' style='background:#C2C2FF; width:330px;height:230px;'><img class = 'decision-stim' src= 'images/11.png'></div><div class = 'fade decision-right' style='background:#C2C2FF; width:330px;height:230px;'><img class = 'decision-stim' src= 'images/13.png'></div>",
            "internal_chunk_id": "0-0.5-9.2-9",
            "time_elapsed": 199298,
            "key_press": -1,
            "trial_index": 0,
            "trial_index_global": 121
        },
        {
            "rt": -1,
            "trial_type": "single-stim",
            "stimulus": "<div class = 'decision-top-background faded' style='background:#C2C2FF; width:330px;height:230px;'><img class = 'decision-stim' src= 'images/11.png'></div><div style = text-align:center><p class = decision-fb style = 'color:red;font-size:60px'>0</p></div>",
            "trial_count": 9,
            "internal_chunk_id": "0-0.5-9.2-9",
            "time_elapsed": 199794,
            "key_press": -1,
            "type": "decision_FB",
            "trial_index": 0,
            "trial_index_global": 122
        },
        {
            "rt": -1,
            "trial_type": "single-stim",
            "stimulus": "",
            "internal_chunk_id": "0-0.5-9.2-9",
            "time_elapsed": 200799,
            "key_press": -1,
            "trial_index": 0,
            "trial_index_global": 123
        },
        {
            "rt": 435,
            "trial_type": "single-stim",
            "stimulus": "<div class = decision-left style='background:#FF9966; width:330px;height:230px;'><img class = 'decision-stim' src= 'images/14.png'></img></div><div class = decision-right style='background:#FF9966; width:330px;height:230px;'><img class = 'decision-stim' src= 'images/16.png'></img></div>",
            "trial_count": 10,
            "internal_chunk_id": "0-0.5-10.0-10",
            "time_elapsed": 201351,
            "key_press": 37,
            "type": "decision_first",
            "trial_index": 0,
            "trial_index_global": 124
        },
        {
            "rt": -1,
            "trial_type": "single-stim",
            "stimulus": "<div class = 'selected decision-left' style='background:#FF9966; width:330px;height:230px;'><img class = 'decision-stim' src= 'images/14.png'></div><div class = 'decision-right fade' style='background:#FF9966; width:330px;height:230px;'><img class = 'decision-stim  fade' src= 'images/16.png'></div>",
            "internal_chunk_id": "0-0.5-10.0-10",
            "time_elapsed": 202364,
            "key_press": -1,
            "trial_index": 0,
            "trial_index_global": 125
        },
        {
            "rt": 758,
            "trial_type": "single-stim",
            "stimulus": "<div class = 'decision-top-background faded' style='background:#FF9966; width:330px;height:230px;'><img class = 'decision-stim' src= 'images/14.png'></div><div class = decision-left style='background:#98bf21; width:330px;height:230px;'><img class = 'decision-stim' src= 'images/12.png'></img></div><div class = decision-right style='background:#98bf21; width:330px;height:230px;'><img class = 'decision-stim' src= 'images/15.png'></img></div>",
            "trial_count": 10,
            "internal_chunk_id": "0-0.5-10",
            "time_elapsed": 203240,
            "key_press": 37,
            "type": "decision_second",
            "trial_index": 0,
            "trial_index_global": 126
        },
        {
            "rt": -1,
            "trial_type": "single-stim",
            "stimulus": "<div class = 'decision-left selected' style='background:#98bf21; width:330px;height:230px;'><img class = 'decision-stim' src= 'images/12.png'></div><div class = 'fade decision-right' style='background:#98bf21; width:330px;height:230px;'><img class = 'decision-stim' src= 'images/15.png'></div>",
            "internal_chunk_id": "0-0.5-10.2-10",
            "time_elapsed": 204253,
            "key_press": -1,
            "trial_index": 0,
            "trial_index_global": 127
        },
        {
            "rt": -1,
            "trial_type": "single-stim",
            "stimulus": "<div class = 'decision-top-background faded' style='background:#98bf21; width:330px;height:230px;'><img class = 'decision-stim' src= 'images/12.png'></div><div><img  class = decision-fb src = 'images/gold_coin.png'></img></div>",
            "trial_count": 10,
            "internal_chunk_id": "0-0.5-10.2-10",
            "time_elapsed": 204753,
            "key_press": -1,
            "type": "decision_FB",
            "trial_index": 0,
            "trial_index_global": 128
        },
        {
            "rt": -1,
            "trial_type": "single-stim",
            "stimulus": "",
            "internal_chunk_id": "0-0.5-10.2-10",
            "time_elapsed": 205749,
            "key_press": -1,
            "trial_index": 0,
            "trial_index_global": 129
        },
        {
            "rt": 367,
            "trial_type": "single-stim",
            "stimulus": "<div class = decision-left style='background:#FF9966; width:330px;height:230px;'><img class = 'decision-stim' src= 'images/14.png'></img></div><div class = decision-right style='background:#FF9966; width:330px;height:230px;'><img class = 'decision-stim' src= 'images/16.png'></img></div>",
            "trial_count": 11,
            "internal_chunk_id": "0-0.5-11.0-11",
            "time_elapsed": 206214,
            "key_press": 39,
            "type": "decision_first",
            "trial_index": 0,
            "trial_index_global": 130
        },
        {
            "rt": -1,
            "trial_type": "single-stim",
            "stimulus": "<div class = 'selected decision-right' style='background:#FF9966; width:330px;height:230px;'><img class = 'decision-stim' src= 'images/16.png'></div><div class = 'decision-left fade' style='background:#FF9966; width:330px;height:230px;'><img class = 'decision-stim  fade' src= 'images/14.png'></div>",
            "internal_chunk_id": "0-0.5-11.0-11",
            "time_elapsed": 207220,
            "key_press": -1,
            "trial_index": 0,
            "trial_index_global": 131
        },
        {
            "rt": 857,
            "trial_type": "single-stim",
            "stimulus": "<div class = 'decision-top-background faded' style='background:#FF9966; width:330px;height:230px;'><img class = 'decision-stim' src= 'images/16.png'></div><div class = decision-left style='background:#98bf21; width:330px;height:230px;'><img class = 'decision-stim' src= 'images/15.png'></img></div><div class = decision-right style='background:#98bf21; width:330px;height:230px;'><img class = 'decision-stim' src= 'images/12.png'></img></div>",
            "trial_count": 11,
            "internal_chunk_id": "0-0.5-11",
            "time_elapsed": 208187,
            "key_press": 37,
            "type": "decision_second",
            "trial_index": 0,
            "trial_index_global": 132
        },
        {
            "rt": -1,
            "trial_type": "single-stim",
            "stimulus": "<div class = 'decision-left selected' style='background:#98bf21; width:330px;height:230px;'><img class = 'decision-stim' src= 'images/15.png'></div><div class = 'fade decision-right' style='background:#98bf21; width:330px;height:230px;'><img class = 'decision-stim' src= 'images/12.png'></div>",
            "internal_chunk_id": "0-0.5-11.2-11",
            "time_elapsed": 209196,
            "key_press": -1,
            "trial_index": 0,
            "trial_index_global": 133
        },
        {
            "rt": -1,
            "trial_type": "single-stim",
            "stimulus": "<div class = 'decision-top-background faded' style='background:#98bf21; width:330px;height:230px;'><img class = 'decision-stim' src= 'images/15.png'></div><div><img  class = decision-fb src = 'images/gold_coin.png'></img></div>",
            "trial_count": 11,
            "internal_chunk_id": "0-0.5-11.2-11",
            "time_elapsed": 209701,
            "key_press": -1,
            "type": "decision_FB",
            "trial_index": 0,
            "trial_index_global": 134
        },
        {
            "rt": -1,
            "trial_type": "single-stim",
            "stimulus": "",
            "internal_chunk_id": "0-0.5-11.2-11",
            "time_elapsed": 210705,
            "key_press": -1,
            "trial_index": 0,
            "trial_index_global": 135
        },
        {
            "rt": 374,
            "trial_type": "single-stim",
            "stimulus": "<div class = decision-left style='background:#FF9966; width:330px;height:230px;'><img class = 'decision-stim' src= 'images/16.png'></img></div><div class = decision-right style='background:#FF9966; width:330px;height:230px;'><img class = 'decision-stim' src= 'images/14.png'></img></div>",
            "trial_count": 12,
            "internal_chunk_id": "0-0.5-12.0-12",
            "time_elapsed": 211198,
            "key_press": 37,
            "type": "decision_first",
            "trial_index": 0,
            "trial_index_global": 136
        },
        {
            "rt": -1,
            "trial_type": "single-stim",
            "stimulus": "<div class = 'selected decision-left' style='background:#FF9966; width:330px;height:230px;'><img class = 'decision-stim' src= 'images/16.png'></div><div class = 'decision-right fade' style='background:#FF9966; width:330px;height:230px;'><img class = 'decision-stim  fade' src= 'images/14.png'></div>",
            "internal_chunk_id": "0-0.5-12.0-12",
            "time_elapsed": 212206,
            "key_press": -1,
            "trial_index": 0,
            "trial_index_global": 137
        },
        {
            "rt": 726,
            "trial_type": "single-stim",
            "stimulus": "<div class = 'decision-top-background faded' style='background:#FF9966; width:330px;height:230px;'><img class = 'decision-stim' src= 'images/16.png'></div><div class = decision-left style='background:#98bf21; width:330px;height:230px;'><img class = 'decision-stim' src= 'images/15.png'></img></div><div class = decision-right style='background:#98bf21; width:330px;height:230px;'><img class = 'decision-stim' src= 'images/12.png'></img></div>",
            "trial_count": 12,
            "internal_chunk_id": "0-0.5-12",
            "time_elapsed": 213050,
            "key_press": 39,
            "type": "decision_second",
            "trial_index": 0,
            "trial_index_global": 138
        },
        {
            "rt": -1,
            "trial_type": "single-stim",
            "stimulus": "<div class = 'decision-right selected' style='background:#98bf21; width:330px;height:230px;'><img class = 'decision-stim' src= 'images/12.png'></div><div class = 'fade decision-left' style='background:#98bf21; width:330px;height:230px;'><img class = 'decision-stim' src= 'images/15.png'></div>",
            "internal_chunk_id": "0-0.5-12.2-12",
            "time_elapsed": 214076,
            "key_press": -1,
            "trial_index": 0,
            "trial_index_global": 139
        },
        {
            "rt": -1,
            "trial_type": "single-stim",
            "stimulus": "<div class = 'decision-top-background faded' style='background:#98bf21; width:330px;height:230px;'><img class = 'decision-stim' src= 'images/12.png'></div><div style = text-align:center><p class = decision-fb style = 'color:red;font-size:60px'>0</p></div>",
            "trial_count": 12,
            "internal_chunk_id": "0-0.5-12.2-12",
            "time_elapsed": 214576,
            "key_press": -1,
            "type": "decision_FB",
            "trial_index": 0,
            "trial_index_global": 140
        },
        {
            "rt": -1,
            "trial_type": "single-stim",
            "stimulus": "",
            "internal_chunk_id": "0-0.5-12.2-12",
            "time_elapsed": 215582,
            "key_press": -1,
            "trial_index": 0,
            "trial_index_global": 141
        },
        {
            "rt": 470,
            "trial_type": "single-stim",
            "stimulus": "<div class = decision-left style='background:#FF9966; width:330px;height:230px;'><img class = 'decision-stim' src= 'images/16.png'></img></div><div class = decision-right style='background:#FF9966; width:330px;height:230px;'><img class = 'decision-stim' src= 'images/14.png'></img></div>",
            "trial_count": 13,
            "internal_chunk_id": "0-0.5-13.0-13",
            "time_elapsed": 216192,
            "key_press": 39,
            "type": "decision_first",
            "trial_index": 0,
            "trial_index_global": 142
        },
        {
            "rt": -1,
            "trial_type": "single-stim",
            "stimulus": "<div class = 'selected decision-right' style='background:#FF9966; width:330px;height:230px;'><img class = 'decision-stim' src= 'images/14.png'></div><div class = 'decision-left fade' style='background:#FF9966; width:330px;height:230px;'><img class = 'decision-stim  fade' src= 'images/16.png'></div>",
            "internal_chunk_id": "0-0.5-13.0-13",
            "time_elapsed": 217220,
            "key_press": -1,
            "trial_index": 0,
            "trial_index_global": 143
        },
        {
            "rt": 678,
            "trial_type": "single-stim",
            "stimulus": "<div class = 'decision-top-background faded' style='background:#FF9966; width:330px;height:230px;'><img class = 'decision-stim' src= 'images/14.png'></div><div class = decision-left style='background:#98bf21; width:330px;height:230px;'><img class = 'decision-stim' src= 'images/15.png'></img></div><div class = decision-right style='background:#98bf21; width:330px;height:230px;'><img class = 'decision-stim' src= 'images/12.png'></img></div>",
            "trial_count": 13,
            "internal_chunk_id": "0-0.5-13",
            "time_elapsed": 217993,
            "key_press": 37,
            "type": "decision_second",
            "trial_index": 0,
            "trial_index_global": 144
        },
        {
            "rt": -1,
            "trial_type": "single-stim",
            "stimulus": "<div class = 'decision-left selected' style='background:#98bf21; width:330px;height:230px;'><img class = 'decision-stim' src= 'images/15.png'></div><div class = 'fade decision-right' style='background:#98bf21; width:330px;height:230px;'><img class = 'decision-stim' src= 'images/12.png'></div>",
            "internal_chunk_id": "0-0.5-13.2-13",
            "time_elapsed": 219002,
            "key_press": -1,
            "trial_index": 0,
            "trial_index_global": 145
        },
        {
            "rt": -1,
            "trial_type": "single-stim",
            "stimulus": "<div class = 'decision-top-background faded' style='background:#98bf21; width:330px;height:230px;'><img class = 'decision-stim' src= 'images/15.png'></div><div style = text-align:center><p class = decision-fb style = 'color:red;font-size:60px'>0</p></div>",
            "trial_count": 13,
            "internal_chunk_id": "0-0.5-13.2-13",
            "time_elapsed": 219503,
            "key_press": -1,
            "type": "decision_FB",
            "trial_index": 0,
            "trial_index_global": 146
        },
        {
            "rt": -1,
            "trial_type": "single-stim",
            "stimulus": "",
            "internal_chunk_id": "0-0.5-13.2-13",
            "time_elapsed": 220510,
            "key_press": -1,
            "trial_index": 0,
            "trial_index_global": 147
        },
        {
            "rt": 615,
            "trial_type": "single-stim",
            "stimulus": "<div class = decision-left style='background:#FF9966; width:330px;height:230px;'><img class = 'decision-stim' src= 'images/16.png'></img></div><div class = decision-right style='background:#FF9966; width:330px;height:230px;'><img class = 'decision-stim' src= 'images/14.png'></img></div>",
            "trial_count": 14,
            "internal_chunk_id": "0-0.5-14.0-14",
            "time_elapsed": 221210,
            "key_press": 37,
            "type": "decision_first",
            "trial_index": 0,
            "trial_index_global": 148
        },
        {
            "rt": -1,
            "trial_type": "single-stim",
            "stimulus": "<div class = 'selected decision-left' style='background:#FF9966; width:330px;height:230px;'><img class = 'decision-stim' src= 'images/16.png'></div><div class = 'decision-right fade' style='background:#FF9966; width:330px;height:230px;'><img class = 'decision-stim  fade' src= 'images/14.png'></div>",
            "internal_chunk_id": "0-0.5-14.0-14",
            "time_elapsed": 222236,
            "key_press": -1,
            "trial_index": 0,
            "trial_index_global": 149
        },
        {
            "rt": 940,
            "trial_type": "single-stim",
            "stimulus": "<div class = 'decision-top-background faded' style='background:#FF9966; width:330px;height:230px;'><img class = 'decision-stim' src= 'images/16.png'></div><div class = decision-left style='background:#C2C2FF; width:330px;height:230px;'><img class = 'decision-stim' src= 'images/11.png'></img></div><div class = decision-right style='background:#C2C2FF; width:330px;height:230px;'><img class = 'decision-stim' src= 'images/13.png'></img></div>",
            "trial_count": 14,
            "internal_chunk_id": "0-0.5-14",
            "time_elapsed": 223308,
            "key_press": 39,
            "type": "decision_second",
            "trial_index": 0,
            "trial_index_global": 150
        },
        {
            "rt": -1,
            "trial_type": "single-stim",
            "stimulus": "<div class = 'decision-right selected' style='background:#C2C2FF; width:330px;height:230px;'><img class = 'decision-stim' src= 'images/13.png'></div><div class = 'fade decision-left' style='background:#C2C2FF; width:330px;height:230px;'><img class = 'decision-stim' src= 'images/11.png'></div>",
            "internal_chunk_id": "0-0.5-14.2-14",
            "time_elapsed": 224320,
            "key_press": -1,
            "trial_index": 0,
            "trial_index_global": 151
        },
        {
            "rt": -1,
            "trial_type": "single-stim",
            "stimulus": "<div class = 'decision-top-background faded' style='background:#C2C2FF; width:330px;height:230px;'><img class = 'decision-stim' src= 'images/13.png'></div><div style = text-align:center><p class = decision-fb style = 'color:red;font-size:60px'>0</p></div>",
            "trial_count": 14,
            "internal_chunk_id": "0-0.5-14.2-14",
            "time_elapsed": 224831,
            "key_press": -1,
            "type": "decision_FB",
            "trial_index": 0,
            "trial_index_global": 152
        },
        {
            "rt": -1,
            "trial_type": "single-stim",
            "stimulus": "",
            "internal_chunk_id": "0-0.5-14.2-14",
            "time_elapsed": 225828,
            "key_press": -1,
            "trial_index": 0,
            "trial_index_global": 153
        },
        {
            "rt": 472,
            "trial_type": "single-stim",
            "stimulus": "<div class = decision-left style='background:#FF9966; width:330px;height:230px;'><img class = 'decision-stim' src= 'images/16.png'></img></div><div class = decision-right style='background:#FF9966; width:330px;height:230px;'><img class = 'decision-stim' src= 'images/14.png'></img></div>",
            "trial_count": 15,
            "internal_chunk_id": "0-0.5-15.0-15",
            "time_elapsed": 226406,
            "key_press": 39,
            "type": "decision_first",
            "trial_index": 0,
            "trial_index_global": 154
        },
        {
            "rt": -1,
            "trial_type": "single-stim",
            "stimulus": "<div class = 'selected decision-right' style='background:#FF9966; width:330px;height:230px;'><img class = 'decision-stim' src= 'images/14.png'></div><div class = 'decision-left fade' style='background:#FF9966; width:330px;height:230px;'><img class = 'decision-stim  fade' src= 'images/16.png'></div>",
            "internal_chunk_id": "0-0.5-15.0-15",
            "time_elapsed": 227438,
            "key_press": -1,
            "trial_index": 0,
            "trial_index_global": 155
        },
        {
            "rt": 573,
            "trial_type": "single-stim",
            "stimulus": "<div class = 'decision-top-background faded' style='background:#FF9966; width:330px;height:230px;'><img class = 'decision-stim' src= 'images/14.png'></div><div class = decision-left style='background:#98bf21; width:330px;height:230px;'><img class = 'decision-stim' src= 'images/15.png'></img></div><div class = decision-right style='background:#98bf21; width:330px;height:230px;'><img class = 'decision-stim' src= 'images/12.png'></img></div>",
            "trial_count": 15,
            "internal_chunk_id": "0-0.5-15",
            "time_elapsed": 228121,
            "key_press": 37,
            "type": "decision_second",
            "trial_index": 0,
            "trial_index_global": 156
        },
        {
            "rt": -1,
            "trial_type": "single-stim",
            "stimulus": "<div class = 'decision-left selected' style='background:#98bf21; width:330px;height:230px;'><img class = 'decision-stim' src= 'images/15.png'></div><div class = 'fade decision-right' style='background:#98bf21; width:330px;height:230px;'><img class = 'decision-stim' src= 'images/12.png'></div>",
            "internal_chunk_id": "0-0.5-15.2-15",
            "time_elapsed": 229150,
            "key_press": -1,
            "trial_index": 0,
            "trial_index_global": 157
        },
        {
            "rt": -1,
            "trial_type": "single-stim",
            "stimulus": "<div class = 'decision-top-background faded' style='background:#98bf21; width:330px;height:230px;'><img class = 'decision-stim' src= 'images/15.png'></div><div style = text-align:center><p class = decision-fb style = 'color:red;font-size:60px'>0</p></div>",
            "trial_count": 15,
            "internal_chunk_id": "0-0.5-15.2-15",
            "time_elapsed": 229657,
            "key_press": -1,
            "type": "decision_FB",
            "trial_index": 0,
            "trial_index_global": 158
        },
        {
            "rt": -1,
            "trial_type": "single-stim",
            "stimulus": "",
            "internal_chunk_id": "0-0.5-15.2-15",
            "time_elapsed": 230654,
            "key_press": -1,
            "trial_index": 0,
            "trial_index_global": 159
        },
        {
            "rt": 373,
            "trial_type": "single-stim",
            "stimulus": "<div class = decision-left style='background:#FF9966; width:330px;height:230px;'><img class = 'decision-stim' src= 'images/16.png'></img></div><div class = decision-right style='background:#FF9966; width:330px;height:230px;'><img class = 'decision-stim' src= 'images/14.png'></img></div>",
            "trial_count": 16,
            "internal_chunk_id": "0-0.5-16.0-16",
            "time_elapsed": 231164,
            "key_press": 37,
            "type": "decision_first",
            "trial_index": 0,
            "trial_index_global": 160
        },
        {
            "rt": -1,
            "trial_type": "single-stim",
            "stimulus": "<div class = 'selected decision-left' style='background:#FF9966; width:330px;height:230px;'><img class = 'decision-stim' src= 'images/16.png'></div><div class = 'decision-right fade' style='background:#FF9966; width:330px;height:230px;'><img class = 'decision-stim  fade' src= 'images/14.png'></div>",
            "internal_chunk_id": "0-0.5-16.0-16",
            "time_elapsed": 232176,
            "key_press": -1,
            "trial_index": 0,
