{
    "AutoApprovalTime": "2015-03-12T20:58:36Z",
    "AssignmentId": "374TNBHA8BVVCS0V8TP3OJR93CDQYL",
    "WorkerId": "A167SYXGXFU7C8",
    "AcceptTime": "2015-03-10T20:30:38Z",
    "HITId": "363A7XIFV4MJYY0GOJ0W20CPME0VAH",
    "Assignment": "",
    "answer": [
        {
            "rt": 48601,
            "trial_type": "text",
            "internal_chunk_id": "0-0",
            "time_elapsed": 48674,
            "key_press": 13,
            "trial_index": 0,
            "trial_index_global": 0
        },
        {
            "rt": -1,
            "trial_type": "single-stim",
            "stimulus": "",
            "internal_chunk_id": "0-0",
            "time_elapsed": 49680,
            "key_press": -1,
            "global_params": {
                "second_stage_stim": {
                    "stimulus": [
                        "<div class = decision-left style='background:#E0C2FF; width:330px;height:230px;'><img class = 'decision-stim' src= 'images/85.png'></img></div><div class = decision-right style='background:#E0C2FF; width:330px;height:230px;'><img class = 'decision-stim' src= 'images/83.png'></img></div>",
                        "<div class = decision-left style='background:#E0C2FF; width:330px;height:230px;'><img class = 'decision-stim' src= 'images/83.png'></img></div><div class = decision-right style='background:#E0C2FF; width:330px;height:230px;'><img class = 'decision-stim' src= 'images/85.png'></img></div>",
                        "<div class = decision-left style='background:#F1B8D4; width:330px;height:230px;'><img class = 'decision-stim' src= 'images/82.png'></img></div><div class = decision-right style='background:#F1B8D4; width:330px;height:230px;'><img class = 'decision-stim' src= 'images/84.png'></img></div>",
                        "<div class = decision-left style='background:#F1B8D4; width:330px;height:230px;'><img class = 'decision-stim' src= 'images/84.png'></img></div><div class = decision-right style='background:#F1B8D4; width:330px;height:230px;'><img class = 'decision-stim' src= 'images/82.png'></img></div>"
                    ],
                    "id": [
                        [
                            2,
                            3
                        ],
                        [
                            3,
                            2
                        ],
                        [
                            4,
                            5
                        ],
                        [
                            5,
                            4
                        ]
                    ]
                },
                "stims": [
                    "images/80.png",
                    "images/81.png",
                    "images/85.png",
                    "images/83.png",
                    "images/82.png",
                    "images/84.png"
                ],
                "fs_stim": [
                    {
                        "stimulus": "<div class = decision-left style='background:#CCFF99; width:330px;height:230px;'><img class = 'decision-stim' src= 'images/80.png'></img></div><div class = decision-right style='background:#CCFF99; width:330px;height:230px;'><img class = 'decision-stim' src= 'images/81.png'></img></div>",
                        "id": [
                            0,
                            1
                        ]
                    },
                    {
                        "stimulus": "<div class = decision-left style='background:#CCFF99; width:330px;height:230px;'><img class = 'decision-stim' src= 'images/81.png'></img></div><div class = decision-right style='background:#CCFF99; width:330px;height:230px;'><img class = 'decision-stim' src= 'images/80.png'></img></div>",
                        "id": [
                            1,
                            0
                        ]
                    }
                ],
                "condition": "practice",
                "actions": [
                    37,
                    39
                ]
            },
            "type": "decision_global",
            "trial_index": 0,
            "trial_index_global": 1
        },
        {
            "rt": -1,
            "trial_type": "single-stim",
            "stimulus": "<div class = decision-left style='background:#CCFF99; width:330px;height:230px;'><img class = 'decision-stim' src= 'images/80.png'></img></div><div class = decision-right style='background:#CCFF99; width:330px;height:230px;'><img class = 'decision-stim' src= 'images/81.png'></img></div>",
            "trial_count": 0,
            "internal_chunk_id": "0-0.2-0.0-0",
            "time_elapsed": 51678,
            "key_press": -1,
            "type": "decision_first",
            "trial_index": 0,
            "trial_index_global": 2
        },
        {
            "rt": -1,
            "trial_type": "single-stim",
            "internal_chunk_id": "0-0.2-0.0-0",
            "time_elapsed": 52678,
            "key_press": -1,
            "trial_index": 0,
            "trial_index_global": 3
        },
        {
            "rt": -1,
            "trial_type": "single-stim",
            "stimulus": "<div class = centerbox style = text-align:center><p style = font-size:30px>Please respond faster </p></div>",
            "trial_count": 0,
            "internal_chunk_id": "0-0.2-0",
            "time_elapsed": 54677,
            "key_press": -1,
            "type": "decision_second",
            "trial_index": 0,
            "trial_index_global": 4
        },
        {
            "rt": -1,
            "trial_type": "single-stim",
            "stimulus": "",
            "internal_chunk_id": "0-0.2-0.3-0",
            "time_elapsed": 55677,
            "key_press": -1,
            "trial_index": 0,
            "trial_index_global": 5
        },
        {
            "rt": 734,
            "trial_type": "single-stim",
            "stimulus": "<div class = decision-left style='background:#CCFF99; width:330px;height:230px;'><img class = 'decision-stim' src= 'images/81.png'></img></div><div class = decision-right style='background:#CCFF99; width:330px;height:230px;'><img class = 'decision-stim' src= 'images/80.png'></img></div>",
            "trial_count": 1,
            "internal_chunk_id": "0-0.2-1.0-1",
            "time_elapsed": 56528,
            "key_press": 39,
            "type": "decision_first",
            "trial_index": 0,
            "trial_index_global": 6
        },
        {
            "rt": -1,
            "trial_type": "single-stim",
            "stimulus": "<div class = 'selected decision-right' style='background:#CCFF99; width:330px;height:230px;'><img class = 'decision-stim' src= 'images/80.png'></div><div class = 'decision-left fade' style='background:#CCFF99; width:330px;height:230px;'><img class = 'decision-stim  fade' src= 'images/81.png'></div>",
            "internal_chunk_id": "0-0.2-1.0-1",
            "time_elapsed": 57532,
            "key_press": -1,
            "trial_index": 0,
            "trial_index_global": 7
        },
        {
            "rt": 969,
            "trial_type": "single-stim",
            "stimulus": "<div class = 'decision-top-background faded' style='background:#CCFF99; width:330px;height:230px;'><img class = 'decision-stim' src= 'images/80.png'></div><div class = decision-left style='background:#F1B8D4; width:330px;height:230px;'><img class = 'decision-stim' src= 'images/82.png'></img></div><div class = decision-right style='background:#F1B8D4; width:330px;height:230px;'><img class = 'decision-stim' src= 'images/84.png'></img></div>",
            "trial_count": 1,
            "internal_chunk_id": "0-0.2-1",
            "time_elapsed": 58623,
            "key_press": 39,
            "type": "decision_second",
            "trial_index": 0,
            "trial_index_global": 8
        },
        {
            "rt": -1,
            "trial_type": "single-stim",
            "stimulus": "<div class = 'decision-right selected' style='background:#F1B8D4; width:330px;height:230px;'><img class = 'decision-stim' src= 'images/84.png'></div><div class = 'fade decision-left' style='background:#F1B8D4; width:330px;height:230px;'><img class = 'decision-stim' src= 'images/82.png'></div>",
            "internal_chunk_id": "0-0.2-1.2-1",
            "time_elapsed": 59629,
            "key_press": -1,
            "trial_index": 0,
            "trial_index_global": 9
        },
        {
            "rt": -1,
            "trial_type": "single-stim",
            "stimulus": "<div class = 'decision-top-background faded' style='background:#F1B8D4; width:330px;height:230px;'><img class = 'decision-stim' src= 'images/84.png'></div><div><img  class = decision-fb src = 'images/gold_coin.png'></img></div>",
            "trial_count": 1,
            "internal_chunk_id": "0-0.2-1.2-1",
            "time_elapsed": 60130,
            "key_press": -1,
            "type": "decision_FB",
            "trial_index": 0,
            "trial_index_global": 10
        },
        {
            "rt": -1,
            "trial_type": "single-stim",
            "stimulus": "",
            "internal_chunk_id": "0-0.2-1.2-1",
            "time_elapsed": 61130,
            "key_press": -1,
            "trial_index": 0,
            "trial_index_global": 11
        },
        {
            "rt": 1233,
            "trial_type": "single-stim",
            "stimulus": "<div class = decision-left style='background:#CCFF99; width:330px;height:230px;'><img class = 'decision-stim' src= 'images/80.png'></img></div><div class = decision-right style='background:#CCFF99; width:330px;height:230px;'><img class = 'decision-stim' src= 'images/81.png'></img></div>",
            "trial_count": 2,
            "internal_chunk_id": "0-0.2-2.0-2",
            "time_elapsed": 62471,
            "key_press": 37,
            "type": "decision_first",
            "trial_index": 0,
            "trial_index_global": 12
        },
        {
            "rt": -1,
            "trial_type": "single-stim",
            "stimulus": "<div class = 'selected decision-left' style='background:#CCFF99; width:330px;height:230px;'><img class = 'decision-stim' src= 'images/80.png'></div><div class = 'decision-right fade' style='background:#CCFF99; width:330px;height:230px;'><img class = 'decision-stim  fade' src= 'images/81.png'></div>",
            "internal_chunk_id": "0-0.2-2.0-2",
            "time_elapsed": 63479,
            "key_press": -1,
            "trial_index": 0,
            "trial_index_global": 13
        },
        {
            "rt": 626,
            "trial_type": "single-stim",
            "stimulus": "<div class = 'decision-top-background faded' style='background:#CCFF99; width:330px;height:230px;'><img class = 'decision-stim' src= 'images/80.png'></div><div class = decision-left style='background:#E0C2FF; width:330px;height:230px;'><img class = 'decision-stim' src= 'images/85.png'></img></div><div class = decision-right style='background:#E0C2FF; width:330px;height:230px;'><img class = 'decision-stim' src= 'images/83.png'></img></div>",
            "trial_count": 2,
            "internal_chunk_id": "0-0.2-2",
            "time_elapsed": 64255,
            "key_press": 39,
            "type": "decision_second",
            "trial_index": 0,
            "trial_index_global": 14
        },
        {
            "rt": -1,
            "trial_type": "single-stim",
            "stimulus": "<div class = 'decision-right selected' style='background:#E0C2FF; width:330px;height:230px;'><img class = 'decision-stim' src= 'images/83.png'></div><div class = 'fade decision-left' style='background:#E0C2FF; width:330px;height:230px;'><img class = 'decision-stim' src= 'images/85.png'></div>",
            "internal_chunk_id": "0-0.2-2.2-2",
            "time_elapsed": 65266,
            "key_press": -1,
            "trial_index": 0,
            "trial_index_global": 15
        },
        {
            "rt": -1,
            "trial_type": "single-stim",
            "stimulus": "<div class = 'decision-top-background faded' style='background:#E0C2FF; width:330px;height:230px;'><img class = 'decision-stim' src= 'images/83.png'></div><div><img  class = decision-fb src = 'images/gold_coin.png'></img></div>",
            "trial_count": 2,
            "internal_chunk_id": "0-0.2-2.2-2",
            "time_elapsed": 65772,
            "key_press": -1,
            "type": "decision_FB",
            "trial_index": 0,
            "trial_index_global": 16
        },
        {
            "rt": -1,
            "trial_type": "single-stim",
            "stimulus": "",
            "internal_chunk_id": "0-0.2-2.2-2",
            "time_elapsed": 66771,
            "key_press": -1,
            "trial_index": 0,
            "trial_index_global": 17
        },
        {
            "rt": 447,
            "trial_type": "single-stim",
            "stimulus": "<div class = decision-left style='background:#CCFF99; width:330px;height:230px;'><img class = 'decision-stim' src= 'images/80.png'></img></div><div class = decision-right style='background:#CCFF99; width:330px;height:230px;'><img class = 'decision-stim' src= 'images/81.png'></img></div>",
            "trial_count": 3,
            "internal_chunk_id": "0-0.2-3.0-3",
            "time_elapsed": 67327,
            "key_press": 37,
            "type": "decision_first",
            "trial_index": 0,
            "trial_index_global": 18
        },
        {
            "rt": -1,
            "trial_type": "single-stim",
            "stimulus": "<div class = 'selected decision-left' style='background:#CCFF99; width:330px;height:230px;'><img class = 'decision-stim' src= 'images/80.png'></div><div class = 'decision-right fade' style='background:#CCFF99; width:330px;height:230px;'><img class = 'decision-stim  fade' src= 'images/81.png'></div>",
            "internal_chunk_id": "0-0.2-3.0-3",
            "time_elapsed": 68333,
            "key_press": -1,
            "trial_index": 0,
            "trial_index_global": 19
        },
        {
            "rt": 364,
            "trial_type": "single-stim",
            "stimulus": "<div class = 'decision-top-background faded' style='background:#CCFF99; width:330px;height:230px;'><img class = 'decision-stim' src= 'images/80.png'></div><div class = decision-left style='background:#F1B8D4; width:330px;height:230px;'><img class = 'decision-stim' src= 'images/84.png'></img></div><div class = decision-right style='background:#F1B8D4; width:330px;height:230px;'><img class = 'decision-stim' src= 'images/82.png'></img></div>",
            "trial_count": 3,
            "internal_chunk_id": "0-0.2-3",
            "time_elapsed": 68815,
            "key_press": 39,
            "type": "decision_second",
            "trial_index": 0,
            "trial_index_global": 20
        },
        {
            "rt": -1,
            "trial_type": "single-stim",
            "stimulus": "<div class = 'decision-right selected' style='background:#F1B8D4; width:330px;height:230px;'><img class = 'decision-stim' src= 'images/82.png'></div><div class = 'fade decision-left' style='background:#F1B8D4; width:330px;height:230px;'><img class = 'decision-stim' src= 'images/84.png'></div>",
            "internal_chunk_id": "0-0.2-3.2-3",
            "time_elapsed": 69828,
            "key_press": -1,
            "trial_index": 0,
            "trial_index_global": 21
        },
        {
            "rt": -1,
            "trial_type": "single-stim",
            "stimulus": "<div class = 'decision-top-background faded' style='background:#F1B8D4; width:330px;height:230px;'><img class = 'decision-stim' src= 'images/82.png'></div><div><img  class = decision-fb src = 'images/gold_coin.png'></img></div>",
            "trial_count": 3,
            "internal_chunk_id": "0-0.2-3.2-3",
            "time_elapsed": 70316,
            "key_press": -1,
            "type": "decision_FB",
            "trial_index": 0,
            "trial_index_global": 22
        },
        {
            "rt": -1,
            "trial_type": "single-stim",
            "stimulus": "",
            "internal_chunk_id": "0-0.2-3.2-3",
            "time_elapsed": 71321,
            "key_press": -1,
            "trial_index": 0,
            "trial_index_global": 23
        },
        {
            "rt": 674,
            "trial_type": "single-stim",
            "stimulus": "<div class = decision-left style='background:#CCFF99; width:330px;height:230px;'><img class = 'decision-stim' src= 'images/81.png'></img></div><div class = decision-right style='background:#CCFF99; width:330px;height:230px;'><img class = 'decision-stim' src= 'images/80.png'></img></div>",
            "trial_count": 4,
            "internal_chunk_id": "0-0.2-4.0-4",
            "time_elapsed": 72079,
            "key_press": 37,
            "type": "decision_first",
            "trial_index": 0,
            "trial_index_global": 24
        },
        {
            "rt": -1,
            "trial_type": "single-stim",
            "stimulus": "<div class = 'selected decision-left' style='background:#CCFF99; width:330px;height:230px;'><img class = 'decision-stim' src= 'images/81.png'></div><div class = 'decision-right fade' style='background:#CCFF99; width:330px;height:230px;'><img class = 'decision-stim  fade' src= 'images/80.png'></div>",
            "internal_chunk_id": "0-0.2-4.0-4",
            "time_elapsed": 73095,
            "key_press": -1,
            "trial_index": 0,
            "trial_index_global": 25
        },
        {
            "rt": 572,
            "trial_type": "single-stim",
            "stimulus": "<div class = 'decision-top-background faded' style='background:#CCFF99; width:330px;height:230px;'><img class = 'decision-stim' src= 'images/81.png'></div><div class = decision-left style='background:#F1B8D4; width:330px;height:230px;'><img class = 'decision-stim' src= 'images/82.png'></img></div><div class = decision-right style='background:#F1B8D4; width:330px;height:230px;'><img class = 'decision-stim' src= 'images/84.png'></img></div>",
            "trial_count": 4,
            "internal_chunk_id": "0-0.2-4",
            "time_elapsed": 73807,
            "key_press": 39,
            "type": "decision_second",
            "trial_index": 0,
            "trial_index_global": 26
        },
        {
            "rt": -1,
            "trial_type": "single-stim",
            "stimulus": "<div class = 'decision-right selected' style='background:#F1B8D4; width:330px;height:230px;'><img class = 'decision-stim' src= 'images/84.png'></div><div class = 'fade decision-left' style='background:#F1B8D4; width:330px;height:230px;'><img class = 'decision-stim' src= 'images/82.png'></div>",
            "internal_chunk_id": "0-0.2-4.2-4",
            "time_elapsed": 74809,
            "key_press": -1,
            "trial_index": 0,
            "trial_index_global": 27
        },
        {
            "rt": -1,
            "trial_type": "single-stim",
            "stimulus": "<div class = 'decision-top-background faded' style='background:#F1B8D4; width:330px;height:230px;'><img class = 'decision-stim' src= 'images/84.png'></div><div style = text-align:center><p class = decision-fb style = 'color:red;font-size:60px'>0</p></div>",
            "trial_count": 4,
            "internal_chunk_id": "0-0.2-4.2-4",
            "time_elapsed": 75310,
            "key_press": -1,
            "type": "decision_FB",
            "trial_index": 0,
            "trial_index_global": 28
        },
        {
            "rt": -1,
            "trial_type": "single-stim",
            "stimulus": "",
            "internal_chunk_id": "0-0.2-4.2-4",
            "time_elapsed": 76306,
            "key_press": -1,
            "trial_index": 0,
            "trial_index_global": 29
        },
        {
            "rt": 473,
            "trial_type": "single-stim",
            "stimulus": "<div class = decision-left style='background:#CCFF99; width:330px;height:230px;'><img class = 'decision-stim' src= 'images/80.png'></img></div><div class = decision-right style='background:#CCFF99; width:330px;height:230px;'><img class = 'decision-stim' src= 'images/81.png'></img></div>",
            "trial_count": 5,
            "internal_chunk_id": "0-0.2-5.0-5",
            "time_elapsed": 76863,
            "key_press": 37,
            "type": "decision_first",
            "trial_index": 0,
            "trial_index_global": 30
        },
        {
            "rt": -1,
            "trial_type": "single-stim",
            "stimulus": "<div class = 'selected decision-left' style='background:#CCFF99; width:330px;height:230px;'><img class = 'decision-stim' src= 'images/80.png'></div><div class = 'decision-right fade' style='background:#CCFF99; width:330px;height:230px;'><img class = 'decision-stim  fade' src= 'images/81.png'></div>",
            "internal_chunk_id": "0-0.2-5.0-5",
            "time_elapsed": 77863,
            "key_press": -1,
            "trial_index": 0,
            "trial_index_global": 31
        },
        {
            "rt": 522,
            "trial_type": "single-stim",
            "stimulus": "<div class = 'decision-top-background faded' style='background:#CCFF99; width:330px;height:230px;'><img class = 'decision-stim' src= 'images/80.png'></div><div class = decision-left style='background:#E0C2FF; width:330px;height:230px;'><img class = 'decision-stim' src= 'images/83.png'></img></div><div class = decision-right style='background:#E0C2FF; width:330px;height:230px;'><img class = 'decision-stim' src= 'images/85.png'></img></div>",
            "trial_count": 5,
            "internal_chunk_id": "0-0.2-5",
            "time_elapsed": 78431,
            "key_press": 37,
            "type": "decision_second",
            "trial_index": 0,
            "trial_index_global": 32
        },
        {
            "rt": -1,
            "trial_type": "single-stim",
            "stimulus": "<div class = 'decision-left selected' style='background:#E0C2FF; width:330px;height:230px;'><img class = 'decision-stim' src= 'images/83.png'></div><div class = 'fade decision-right' style='background:#E0C2FF; width:330px;height:230px;'><img class = 'decision-stim' src= 'images/85.png'></div>",
            "internal_chunk_id": "0-0.2-5.2-5",
            "time_elapsed": 79430,
            "key_press": -1,
            "trial_index": 0,
            "trial_index_global": 33
        },
        {
            "rt": -1,
            "trial_type": "single-stim",
            "stimulus": "<div class = 'decision-top-background faded' style='background:#E0C2FF; width:330px;height:230px;'><img class = 'decision-stim' src= 'images/83.png'></div><div><img  class = decision-fb src = 'images/gold_coin.png'></img></div>",
            "trial_count": 5,
            "internal_chunk_id": "0-0.2-5.2-5",
            "time_elapsed": 79926,
            "key_press": -1,
            "type": "decision_FB",
            "trial_index": 0,
            "trial_index_global": 34
        },
        {
            "rt": -1,
            "trial_type": "single-stim",
            "stimulus": "",
            "internal_chunk_id": "0-0.2-5.2-5",
            "time_elapsed": 80926,
            "key_press": -1,
            "trial_index": 0,
            "trial_index_global": 35
        },
        {
            "rt": 557,
            "trial_type": "single-stim",
            "stimulus": "<div class = decision-left style='background:#CCFF99; width:330px;height:230px;'><img class = 'decision-stim' src= 'images/81.png'></img></div><div class = decision-right style='background:#CCFF99; width:330px;height:230px;'><img class = 'decision-stim' src= 'images/80.png'></img></div>",
            "trial_count": 6,
            "internal_chunk_id": "0-0.2-6.0-6",
            "time_elapsed": 81591,
            "key_press": 39,
            "type": "decision_first",
            "trial_index": 0,
            "trial_index_global": 36
        },
        {
            "rt": -1,
            "trial_type": "single-stim",
            "stimulus": "<div class = 'selected decision-right' style='background:#CCFF99; width:330px;height:230px;'><img class = 'decision-stim' src= 'images/80.png'></div><div class = 'decision-left fade' style='background:#CCFF99; width:330px;height:230px;'><img class = 'decision-stim  fade' src= 'images/81.png'></div>",
            "internal_chunk_id": "0-0.2-6.0-6",
            "time_elapsed": 82589,
            "key_press": -1,
            "trial_index": 0,
            "trial_index_global": 37
        },
        {
            "rt": 476,
            "trial_type": "single-stim",
            "stimulus": "<div class = 'decision-top-background faded' style='background:#CCFF99; width:330px;height:230px;'><img class = 'decision-stim' src= 'images/80.png'></div><div class = decision-left style='background:#E0C2FF; width:330px;height:230px;'><img class = 'decision-stim' src= 'images/85.png'></img></div><div class = decision-right style='background:#E0C2FF; width:330px;height:230px;'><img class = 'decision-stim' src= 'images/83.png'></img></div>",
            "trial_count": 6,
            "internal_chunk_id": "0-0.2-6",
            "time_elapsed": 83135,
            "key_press": 37,
            "type": "decision_second",
            "trial_index": 0,
            "trial_index_global": 38
        },
        {
            "rt": -1,
            "trial_type": "single-stim",
            "stimulus": "<div class = 'decision-left selected' style='background:#E0C2FF; width:330px;height:230px;'><img class = 'decision-stim' src= 'images/85.png'></div><div class = 'fade decision-right' style='background:#E0C2FF; width:330px;height:230px;'><img class = 'decision-stim' src= 'images/83.png'></div>",
            "internal_chunk_id": "0-0.2-6.2-6",
            "time_elapsed": 84132,
            "key_press": -1,
            "trial_index": 0,
            "trial_index_global": 39
        },
        {
            "rt": -1,
            "trial_type": "single-stim",
            "stimulus": "<div class = 'decision-top-background faded' style='background:#E0C2FF; width:330px;height:230px;'><img class = 'decision-stim' src= 'images/85.png'></div><div><img  class = decision-fb src = 'images/gold_coin.png'></img></div>",
            "trial_count": 6,
            "internal_chunk_id": "0-0.2-6.2-6",
            "time_elapsed": 84628,
            "key_press": -1,
            "type": "decision_FB",
            "trial_index": 0,
            "trial_index_global": 40
        },
        {
            "rt": -1,
            "trial_type": "single-stim",
            "stimulus": "",
            "internal_chunk_id": "0-0.2-6.2-6",
            "time_elapsed": 85628,
            "key_press": -1,
            "trial_index": 0,
            "trial_index_global": 41
        },
        {
            "rt": 351,
            "trial_type": "single-stim",
            "stimulus": "<div class = decision-left style='background:#CCFF99; width:330px;height:230px;'><img class = 'decision-stim' src= 'images/81.png'></img></div><div class = decision-right style='background:#CCFF99; width:330px;height:230px;'><img class = 'decision-stim' src= 'images/80.png'></img></div>",
            "trial_count": 7,
            "internal_chunk_id": "0-0.2-7.0-7",
            "time_elapsed": 86055,
            "key_press": 37,
            "type": "decision_first",
            "trial_index": 0,
            "trial_index_global": 42
        },
        {
            "rt": -1,
            "trial_type": "single-stim",
            "stimulus": "<div class = 'selected decision-left' style='background:#CCFF99; width:330px;height:230px;'><img class = 'decision-stim' src= 'images/81.png'></div><div class = 'decision-right fade' style='background:#CCFF99; width:330px;height:230px;'><img class = 'decision-stim  fade' src= 'images/80.png'></div>",
            "internal_chunk_id": "0-0.2-7.0-7",
            "time_elapsed": 87059,
            "key_press": -1,
            "trial_index": 0,
            "trial_index_global": 43
        },
        {
            "rt": 501,
            "trial_type": "single-stim",
            "stimulus": "<div class = 'decision-top-background faded' style='background:#CCFF99; width:330px;height:230px;'><img class = 'decision-stim' src= 'images/81.png'></div><div class = decision-left style='background:#F1B8D4; width:330px;height:230px;'><img class = 'decision-stim' src= 'images/82.png'></img></div><div class = decision-right style='background:#F1B8D4; width:330px;height:230px;'><img class = 'decision-stim' src= 'images/84.png'></img></div>",
            "trial_count": 7,
            "internal_chunk_id": "0-0.2-7",
            "time_elapsed": 87647,
            "key_press": 39,
            "type": "decision_second",
            "trial_index": 0,
            "trial_index_global": 44
        },
        {
            "rt": -1,
            "trial_type": "single-stim",
            "stimulus": "<div class = 'decision-right selected' style='background:#F1B8D4; width:330px;height:230px;'><img class = 'decision-stim' src= 'images/84.png'></div><div class = 'fade decision-left' style='background:#F1B8D4; width:330px;height:230px;'><img class = 'decision-stim' src= 'images/82.png'></div>",
            "internal_chunk_id": "0-0.2-7.2-7",
            "time_elapsed": 88649,
            "key_press": -1,
            "trial_index": 0,
            "trial_index_global": 45
        },
        {
            "rt": -1,
            "trial_type": "single-stim",
            "stimulus": "<div class = 'decision-top-background faded' style='background:#F1B8D4; width:330px;height:230px;'><img class = 'decision-stim' src= 'images/84.png'></div><div><img  class = decision-fb src = 'images/gold_coin.png'></img></div>",
            "trial_count": 7,
            "internal_chunk_id": "0-0.2-7.2-7",
            "time_elapsed": 89144,
            "key_press": -1,
            "type": "decision_FB",
            "trial_index": 0,
            "trial_index_global": 46
        },
        {
            "rt": -1,
            "trial_type": "single-stim",
            "stimulus": "",
            "internal_chunk_id": "0-0.2-7.2-7",
            "time_elapsed": 90145,
            "key_press": -1,
            "trial_index": 0,
            "trial_index_global": 47
        },
        {
            "rt": 337,
            "trial_type": "single-stim",
            "stimulus": "<div class = decision-left style='background:#CCFF99; width:330px;height:230px;'><img class = 'decision-stim' src= 'images/80.png'></img></div><div class = decision-right style='background:#CCFF99; width:330px;height:230px;'><img class = 'decision-stim' src= 'images/81.png'></img></div>",
            "trial_count": 8,
            "internal_chunk_id": "0-0.2-8.0-8",
            "time_elapsed": 90551,
            "key_press": 37,
            "type": "decision_first",
            "trial_index": 0,
            "trial_index_global": 48
        },
        {
            "rt": -1,
            "trial_type": "single-stim",
            "stimulus": "<div class = 'selected decision-left' style='background:#CCFF99; width:330px;height:230px;'><img class = 'decision-stim' src= 'images/80.png'></div><div class = 'decision-right fade' style='background:#CCFF99; width:330px;height:230px;'><img class = 'decision-stim  fade' src= 'images/81.png'></div>",
            "internal_chunk_id": "0-0.2-8.0-8",
            "time_elapsed": 91568,
            "key_press": -1,
            "trial_index": 0,
            "trial_index_global": 49
        },
        {
            "rt": 511,
            "trial_type": "single-stim",
            "stimulus": "<div class = 'decision-top-background faded' style='background:#CCFF99; width:330px;height:230px;'><img class = 'decision-stim' src= 'images/80.png'></div><div class = decision-left style='background:#F1B8D4; width:330px;height:230px;'><img class = 'decision-stim' src= 'images/82.png'></img></div><div class = decision-right style='background:#F1B8D4; width:330px;height:230px;'><img class = 'decision-stim' src= 'images/84.png'></img></div>",
            "trial_count": 8,
            "internal_chunk_id": "0-0.2-8",
            "time_elapsed": 92183,
            "key_press": 39,
            "type": "decision_second",
            "trial_index": 0,
            "trial_index_global": 50
        },
        {
            "rt": -1,
            "trial_type": "single-stim",
            "stimulus": "<div class = 'decision-right selected' style='background:#F1B8D4; width:330px;height:230px;'><img class = 'decision-stim' src= 'images/84.png'></div><div class = 'fade decision-left' style='background:#F1B8D4; width:330px;height:230px;'><img class = 'decision-stim' src= 'images/82.png'></div>",
            "internal_chunk_id": "0-0.2-8.2-8",
            "time_elapsed": 93180,
            "key_press": -1,
            "trial_index": 0,
            "trial_index_global": 51
        },
        {
            "rt": -1,
            "trial_type": "single-stim",
            "stimulus": "<div class = 'decision-top-background faded' style='background:#F1B8D4; width:330px;height:230px;'><img class = 'decision-stim' src= 'images/84.png'></div><div><img  class = decision-fb src = 'images/gold_coin.png'></img></div>",
            "trial_count": 8,
            "internal_chunk_id": "0-0.2-8.2-8",
            "time_elapsed": 93675,
            "key_press": -1,
            "type": "decision_FB",
            "trial_index": 0,
            "trial_index_global": 52
        },
        {
            "rt": -1,
            "trial_type": "single-stim",
            "stimulus": "",
            "internal_chunk_id": "0-0.2-8.2-8",
            "time_elapsed": 94674,
            "key_press": -1,
            "trial_index": 0,
            "trial_index_global": 53
        },
        {
            "rt": 664,
            "trial_type": "single-stim",
            "stimulus": "<div class = decision-left style='background:#CCFF99; width:330px;height:230px;'><img class = 'decision-stim' src= 'images/81.png'></img></div><div class = decision-right style='background:#CCFF99; width:330px;height:230px;'><img class = 'decision-stim' src= 'images/80.png'></img></div>",
            "trial_count": 9,
            "internal_chunk_id": "0-0.2-9.0-9",
            "time_elapsed": 95423,
            "key_press": 37,
            "type": "decision_first",
            "trial_index": 0,
            "trial_index_global": 54
        },
        {
            "rt": -1,
            "trial_type": "single-stim",
            "stimulus": "<div class = 'selected decision-left' style='background:#CCFF99; width:330px;height:230px;'><img class = 'decision-stim' src= 'images/81.png'></div><div class = 'decision-right fade' style='background:#CCFF99; width:330px;height:230px;'><img class = 'decision-stim  fade' src= 'images/80.png'></div>",
            "internal_chunk_id": "0-0.2-9.0-9",
            "time_elapsed": 96433,
            "key_press": -1,
            "trial_index": 0,
            "trial_index_global": 55
        },
        {
            "rt": 455,
            "trial_type": "single-stim",
            "stimulus": "<div class = 'decision-top-background faded' style='background:#CCFF99; width:330px;height:230px;'><img class = 'decision-stim' src= 'images/81.png'></div><div class = decision-left style='background:#F1B8D4; width:330px;height:230px;'><img class = 'decision-stim' src= 'images/82.png'></img></div><div class = decision-right style='background:#F1B8D4; width:330px;height:230px;'><img class = 'decision-stim' src= 'images/84.png'></img></div>",
            "trial_count": 9,
            "internal_chunk_id": "0-0.2-9",
            "time_elapsed": 96983,
            "key_press": 37,
            "type": "decision_second",
            "trial_index": 0,
            "trial_index_global": 56
        },
        {
            "rt": -1,
            "trial_type": "single-stim",
            "stimulus": "<div class = 'decision-left selected' style='background:#F1B8D4; width:330px;height:230px;'><img class = 'decision-stim' src= 'images/82.png'></div><div class = 'fade decision-right' style='background:#F1B8D4; width:330px;height:230px;'><img class = 'decision-stim' src= 'images/84.png'></div>",
            "internal_chunk_id": "0-0.2-9.2-9",
            "time_elapsed": 97994,
            "key_press": -1,
            "trial_index": 0,
            "trial_index_global": 57
        },
        {
            "rt": -1,
            "trial_type": "single-stim",
            "stimulus": "<div class = 'decision-top-background faded' style='background:#F1B8D4; width:330px;height:230px;'><img class = 'decision-stim' src= 'images/82.png'></div><div style = text-align:center><p class = decision-fb style = 'color:red;font-size:60px'>0</p></div>",
            "trial_count": 9,
            "internal_chunk_id": "0-0.2-9.2-9",
            "time_elapsed": 98497,
            "key_press": -1,
            "type": "decision_FB",
            "trial_index": 0,
            "trial_index_global": 58
        },
        {
            "rt": -1,
            "trial_type": "single-stim",
            "stimulus": "",
            "internal_chunk_id": "0-0.2-9.2-9",
            "time_elapsed": 99490,
            "key_press": -1,
            "trial_index": 0,
            "trial_index_global": 59
        },
        {
            "rt": 24536,
            "trial_type": "text",
            "internal_chunk_id": "0-0",
            "time_elapsed": 124124,
            "key_press": 13,
            "trial_index": 0,
            "trial_index_global": 60
        },
        {
            "rt": -1,
            "trial_type": "single-stim",
            "stimulus": "",
            "internal_chunk_id": "0-0",
            "time_elapsed": 125127,
            "key_press": -1,
            "global_params": {
                "second_stage_stim": {
                    "stimulus": [
                        "<div class = decision-left style='background:#FF9966; width:330px;height:230px;'><img class = 'decision-stim' src= 'images/12.png'></img></div><div class = decision-right style='background:#FF9966; width:330px;height:230px;'><img class = 'decision-stim' src= 'images/14.png'></img></div>",
                        "<div class = decision-left style='background:#FF9966; width:330px;height:230px;'><img class = 'decision-stim' src= 'images/14.png'></img></div><div class = decision-right style='background:#FF9966; width:330px;height:230px;'><img class = 'decision-stim' src= 'images/12.png'></img></div>",
                        "<div class = decision-left style='background:#98bf21; width:330px;height:230px;'><img class = 'decision-stim' src= 'images/16.png'></img></div><div class = decision-right style='background:#98bf21; width:330px;height:230px;'><img class = 'decision-stim' src= 'images/13.png'></img></div>",
                        "<div class = decision-left style='background:#98bf21; width:330px;height:230px;'><img class = 'decision-stim' src= 'images/13.png'></img></div><div class = decision-right style='background:#98bf21; width:330px;height:230px;'><img class = 'decision-stim' src= 'images/16.png'></img></div>"
                    ],
                    "id": [
                        [
                            2,
                            3
                        ],
                        [
                            3,
                            2
                        ],
                        [
                            4,
                            5
                        ],
                        [
                            5,
                            4
                        ]
                    ]
                },
                "stims": [
                    "images/15.png",
                    "images/11.png",
                    "images/12.png",
                    "images/14.png",
                    "images/16.png",
                    "images/13.png"
                ],
                "fs_stim": [
                    {
                        "stimulus": "<div class = decision-left style='background:#C2C2FF; width:330px;height:230px;'><img class = 'decision-stim' src= 'images/15.png'></img></div><div class = decision-right style='background:#C2C2FF; width:330px;height:230px;'><img class = 'decision-stim' src= 'images/11.png'></img></div>",
                        "id": [
                            0,
                            1
                        ]
                    },
                    {
                        "stimulus": "<div class = decision-left style='background:#C2C2FF; width:330px;height:230px;'><img class = 'decision-stim' src= 'images/11.png'></img></div><div class = decision-right style='background:#C2C2FF; width:330px;height:230px;'><img class = 'decision-stim' src= 'images/15.png'></img></div>",
                        "id": [
                            1,
                            0
                        ]
                    }
                ],
                "condition": "test",
                "actions": [
                    37,
                    39
                ]
            },
            "type": "decision_global",
            "trial_index": 0,
            "trial_index_global": 61
        },
        {
            "rt": 782,
            "trial_type": "single-stim",
            "stimulus": "<div class = decision-left style='background:#C2C2FF; width:330px;height:230px;'><img class = 'decision-stim' src= 'images/11.png'></img></div><div class = decision-right style='background:#C2C2FF; width:330px;height:230px;'><img class = 'decision-stim' src= 'images/15.png'></img></div>",
            "trial_count": 0,
            "internal_chunk_id": "0-0.5-0.0-0",
            "time_elapsed": 125975,
            "key_press": 37,
            "type": "decision_first",
            "trial_index": 0,
            "trial_index_global": 62
        },
        {
            "rt": -1,
            "trial_type": "single-stim",
            "stimulus": "<div class = 'selected decision-left' style='background:#C2C2FF; width:330px;height:230px;'><img class = 'decision-stim' src= 'images/11.png'></div><div class = 'decision-right fade' style='background:#C2C2FF; width:330px;height:230px;'><img class = 'decision-stim  fade' src= 'images/15.png'></div>",
            "internal_chunk_id": "0-0.5-0.0-0",
            "time_elapsed": 126991,
            "key_press": -1,
            "trial_index": 0,
            "trial_index_global": 63
        },
        {
            "rt": 396,
            "trial_type": "single-stim",
            "stimulus": "<div class = 'decision-top-background faded' style='background:#C2C2FF; width:330px;height:230px;'><img class = 'decision-stim' src= 'images/11.png'></div><div class = decision-left style='background:#98bf21; width:330px;height:230px;'><img class = 'decision-stim' src= 'images/16.png'></img></div><div class = decision-right style='background:#98bf21; width:330px;height:230px;'><img class = 'decision-stim' src= 'images/13.png'></img></div>",
            "trial_count": 0,
            "internal_chunk_id": "0-0.5-0",
            "time_elapsed": 127479,
            "key_press": 39,
            "type": "decision_second",
            "trial_index": 0,
            "trial_index_global": 64
        },
        {
            "rt": -1,
            "trial_type": "single-stim",
            "stimulus": "<div class = 'decision-right selected' style='background:#98bf21; width:330px;height:230px;'><img class = 'decision-stim' src= 'images/13.png'></div><div class = 'fade decision-left' style='background:#98bf21; width:330px;height:230px;'><img class = 'decision-stim' src= 'images/16.png'></div>",
            "internal_chunk_id": "0-0.5-0.2-0",
            "time_elapsed": 128492,
            "key_press": -1,
            "trial_index": 0,
            "trial_index_global": 65
        },
        {
            "rt": -1,
            "trial_type": "single-stim",
            "stimulus": "<div class = 'decision-top-background faded' style='background:#98bf21; width:330px;height:230px;'><img class = 'decision-stim' src= 'images/13.png'></div><div style = text-align:center><p class = decision-fb style = 'color:red;font-size:60px'>0</p></div>",
            "trial_count": 0,
            "internal_chunk_id": "0-0.5-0.2-0",
            "time_elapsed": 128988,
            "key_press": -1,
            "type": "decision_FB",
            "trial_index": 0,
            "trial_index_global": 66
        },
        {
            "rt": -1,
            "trial_type": "single-stim",
            "stimulus": "",
            "internal_chunk_id": "0-0.5-0.2-0",
            "time_elapsed": 129987,
            "key_press": -1,
            "trial_index": 0,
            "trial_index_global": 67
        },
        {
            "rt": 453,
            "trial_type": "single-stim",
            "stimulus": "<div class = decision-left style='background:#C2C2FF; width:330px;height:230px;'><img class = 'decision-stim' src= 'images/15.png'></img></div><div class = decision-right style='background:#C2C2FF; width:330px;height:230px;'><img class = 'decision-stim' src= 'images/11.png'></img></div>",
            "trial_count": 1,
            "internal_chunk_id": "0-0.5-1.0-1",
            "time_elapsed": 130519,
            "key_press": 37,
            "type": "decision_first",
            "trial_index": 0,
            "trial_index_global": 68
        },
        {
            "rt": -1,
            "trial_type": "single-stim",
            "stimulus": "<div class = 'selected decision-left' style='background:#C2C2FF; width:330px;height:230px;'><img class = 'decision-stim' src= 'images/15.png'></div><div class = 'decision-right fade' style='background:#C2C2FF; width:330px;height:230px;'><img class = 'decision-stim  fade' src= 'images/11.png'></div>",
            "internal_chunk_id": "0-0.5-1.0-1",
            "time_elapsed": 131541,
            "key_press": -1,
            "trial_index": 0,
            "trial_index_global": 69
        },
        {
            "rt": 330,
            "trial_type": "single-stim",
            "stimulus": "<div class = 'decision-top-background faded' style='background:#C2C2FF; width:330px;height:230px;'><img class = 'decision-stim' src= 'images/15.png'></div><div class = decision-left style='background:#FF9966; width:330px;height:230px;'><img class = 'decision-stim' src= 'images/12.png'></img></div><div class = decision-right style='background:#FF9966; width:330px;height:230px;'><img class = 'decision-stim' src= 'images/14.png'></img></div>",
            "trial_count": 1,
            "internal_chunk_id": "0-0.5-1",
            "time_elapsed": 131979,
            "key_press": 37,
            "type": "decision_second",
            "trial_index": 0,
            "trial_index_global": 70
        },
        {
            "rt": -1,
            "trial_type": "single-stim",
            "stimulus": "<div class = 'decision-left selected' style='background:#FF9966; width:330px;height:230px;'><img class = 'decision-stim' src= 'images/12.png'></div><div class = 'fade decision-right' style='background:#FF9966; width:330px;height:230px;'><img class = 'decision-stim' src= 'images/14.png'></div>",
            "internal_chunk_id": "0-0.5-1.2-1",
            "time_elapsed": 132992,
            "key_press": -1,
            "trial_index": 0,
            "trial_index_global": 71
        },
        {
            "rt": -1,
            "trial_type": "single-stim",
            "stimulus": "<div class = 'decision-top-background faded' style='background:#FF9966; width:330px;height:230px;'><img class = 'decision-stim' src= 'images/12.png'></div><div style = text-align:center><p class = decision-fb style = 'color:red;font-size:60px'>0</p></div>",
            "trial_count": 1,
            "internal_chunk_id": "0-0.5-1.2-1",
            "time_elapsed": 133487,
            "key_press": -1,
            "type": "decision_FB",
            "trial_index": 0,
            "trial_index_global": 72
        },
        {
            "rt": -1,
            "trial_type": "single-stim",
            "stimulus": "",
            "internal_chunk_id": "0-0.5-1.2-1",
            "time_elapsed": 134487,
            "key_press": -1,
            "trial_index": 0,
            "trial_index_global": 73
        },
        {
            "rt": 538,
            "trial_type": "single-stim",
            "stimulus": "<div class = decision-left style='background:#C2C2FF; width:330px;height:230px;'><img class = 'decision-stim' src= 'images/11.png'></img></div><div class = decision-right style='background:#C2C2FF; width:330px;height:230px;'><img class = 'decision-stim' src= 'images/15.png'></img></div>",
            "trial_count": 2,
            "internal_chunk_id": "0-0.5-2.0-2",
            "time_elapsed": 135122,
            "key_press": 39,
            "type": "decision_first",
            "trial_index": 0,
            "trial_index_global": 74
        },
        {
            "rt": -1,
            "trial_type": "single-stim",
            "stimulus": "<div class = 'selected decision-right' style='background:#C2C2FF; width:330px;height:230px;'><img class = 'decision-stim' src= 'images/15.png'></div><div class = 'decision-left fade' style='background:#C2C2FF; width:330px;height:230px;'><img class = 'decision-stim  fade' src= 'images/11.png'></div>",
            "internal_chunk_id": "0-0.5-2.0-2",
            "time_elapsed": 136126,
            "key_press": -1,
            "trial_index": 0,
            "trial_index_global": 75
        },
        {
            "rt": 423,
            "trial_type": "single-stim",
            "stimulus": "<div class = 'decision-top-background faded' style='background:#C2C2FF; width:330px;height:230px;'><img class = 'decision-stim' src= 'images/15.png'></div><div class = decision-left style='background:#98bf21; width:330px;height:230px;'><img class = 'decision-stim' src= 'images/16.png'></img></div><div class = decision-right style='background:#98bf21; width:330px;height:230px;'><img class = 'decision-stim' src= 'images/13.png'></img></div>",
            "trial_count": 2,
            "internal_chunk_id": "0-0.5-2",
            "time_elapsed": 136632,
            "key_press": 37,
            "type": "decision_second",
            "trial_index": 0,
            "trial_index_global": 76
        },
        {
            "rt": -1,
            "trial_type": "single-stim",
            "stimulus": "<div class = 'decision-left selected' style='background:#98bf21; width:330px;height:230px;'><img class = 'decision-stim' src= 'images/16.png'></div><div class = 'fade decision-right' style='background:#98bf21; width:330px;height:230px;'><img class = 'decision-stim' src= 'images/13.png'></div>",
            "internal_chunk_id": "0-0.5-2.2-2",
            "time_elapsed": 137646,
            "key_press": -1,
            "trial_index": 0,
            "trial_index_global": 77
        },
        {
            "rt": -1,
            "trial_type": "single-stim",
            "stimulus": "<div class = 'decision-top-background faded' style='background:#98bf21; width:330px;height:230px;'><img class = 'decision-stim' src= 'images/16.png'></div><div><img  class = decision-fb src = 'images/gold_coin.png'></img></div>",
            "trial_count": 2,
            "internal_chunk_id": "0-0.5-2.2-2",
            "time_elapsed": 138160,
            "key_press": -1,
            "type": "decision_FB",
            "trial_index": 0,
            "trial_index_global": 78
        },
        {
            "rt": -1,
            "trial_type": "single-stim",
            "stimulus": "",
            "internal_chunk_id": "0-0.5-2.2-2",
            "time_elapsed": 139158,
            "key_press": -1,
            "trial_index": 0,
            "trial_index_global": 79
        },
        {
            "rt": 477,
            "trial_type": "single-stim",
            "stimulus": "<div class = decision-left style='background:#C2C2FF; width:330px;height:230px;'><img class = 'decision-stim' src= 'images/15.png'></img></div><div class = decision-right style='background:#C2C2FF; width:330px;height:230px;'><img class = 'decision-stim' src= 'images/11.png'></img></div>",
            "trial_count": 3,
            "internal_chunk_id": "0-0.5-3.0-3",
            "time_elapsed": 139719,
            "key_press": 37,
            "type": "decision_first",
            "trial_index": 0,
            "trial_index_global": 80
        },
        {
            "rt": -1,
            "trial_type": "single-stim",
            "stimulus": "<div class = 'selected decision-left' style='background:#C2C2FF; width:330px;height:230px;'><img class = 'decision-stim' src= 'images/15.png'></div><div class = 'decision-right fade' style='background:#C2C2FF; width:330px;height:230px;'><img class = 'decision-stim  fade' src= 'images/11.png'></div>",
            "internal_chunk_id": "0-0.5-3.0-3",
            "time_elapsed": 140726,
            "key_press": -1,
            "trial_index": 0,
            "trial_index_global": 81
        },
        {
            "rt": 482,
            "trial_type": "single-stim",
            "stimulus": "<div class = 'decision-top-background faded' style='background:#C2C2FF; width:330px;height:230px;'><img class = 'decision-stim' src= 'images/15.png'></div><div class = decision-left style='background:#FF9966; width:330px;height:230px;'><img class = 'decision-stim' src= 'images/14.png'></img></div><div class = decision-right style='background:#FF9966; width:330px;height:230px;'><img class = 'decision-stim' src= 'images/12.png'></img></div>",
            "trial_count": 3,
            "internal_chunk_id": "0-0.5-3",
            "time_elapsed": 141303,
            "key_press": 37,
            "type": "decision_second",
            "trial_index": 0,
            "trial_index_global": 82
        },
        {
            "rt": -1,
            "trial_type": "single-stim",
            "stimulus": "<div class = 'decision-left selected' style='background:#FF9966; width:330px;height:230px;'><img class = 'decision-stim' src= 'images/14.png'></div><div class = 'fade decision-right' style='background:#FF9966; width:330px;height:230px;'><img class = 'decision-stim' src= 'images/12.png'></div>",
            "internal_chunk_id": "0-0.5-3.2-3",
            "time_elapsed": 142319,
            "key_press": -1,
            "trial_index": 0,
            "trial_index_global": 83
        },
        {
            "rt": -1,
            "trial_type": "single-stim",
            "stimulus": "<div class = 'decision-top-background faded' style='background:#FF9966; width:330px;height:230px;'><img class = 'decision-stim' src= 'images/14.png'></div><div><img  class = decision-fb src = 'images/gold_coin.png'></img></div>",
            "trial_count": 3,
            "internal_chunk_id": "0-0.5-3.2-3",
            "time_elapsed": 142822,
            "key_press": -1,
            "type": "decision_FB",
            "trial_index": 0,
            "trial_index_global": 84
        },
        {
            "rt": -1,
            "trial_type": "single-stim",
            "stimulus": "",
            "internal_chunk_id": "0-0.5-3.2-3",
            "time_elapsed": 143839,
            "key_press": -1,
            "trial_index": 0,
            "trial_index_global": 85
        },
        {
            "rt": 323,
            "trial_type": "single-stim",
            "stimulus": "<div class = decision-left style='background:#C2C2FF; width:330px;height:230px;'><img class = 'decision-stim' src= 'images/11.png'></img></div><div class = decision-right style='background:#C2C2FF; width:330px;height:230px;'><img class = 'decision-stim' src= 'images/15.png'></img></div>",
            "trial_count": 4,
            "internal_chunk_id": "0-0.5-4.0-4",
            "time_elapsed": 144263,
            "key_press": 39,
            "type": "decision_first",
            "trial_index": 0,
            "trial_index_global": 86
        },
        {
            "rt": -1,
            "trial_type": "single-stim",
            "stimulus": "<div class = 'selected decision-right' style='background:#C2C2FF; width:330px;height:230px;'><img class = 'decision-stim' src= 'images/15.png'></div><div class = 'decision-left fade' style='background:#C2C2FF; width:330px;height:230px;'><img class = 'decision-stim  fade' src= 'images/11.png'></div>",
            "internal_chunk_id": "0-0.5-4.0-4",
            "time_elapsed": 145274,
            "key_press": -1,
            "trial_index": 0,
            "trial_index_global": 87
        },
        {
            "rt": 477,
            "trial_type": "single-stim",
            "stimulus": "<div class = 'decision-top-background faded' style='background:#C2C2FF; width:330px;height:230px;'><img class = 'decision-stim' src= 'images/15.png'></div><div class = decision-left style='background:#FF9966; width:330px;height:230px;'><img class = 'decision-stim' src= 'images/12.png'></img></div><div class = decision-right style='background:#FF9966; width:330px;height:230px;'><img class = 'decision-stim' src= 'images/14.png'></img></div>",
            "trial_count": 4,
            "internal_chunk_id": "0-0.5-4",
            "time_elapsed": 145887,
            "key_press": 39,
            "type": "decision_second",
            "trial_index": 0,
            "trial_index_global": 88
        },
        {
            "rt": -1,
            "trial_type": "single-stim",
            "stimulus": "<div class = 'decision-right selected' style='background:#FF9966; width:330px;height:230px;'><img class = 'decision-stim' src= 'images/14.png'></div><div class = 'fade decision-left' style='background:#FF9966; width:330px;height:230px;'><img class = 'decision-stim' src= 'images/12.png'></div>",
            "internal_chunk_id": "0-0.5-4.2-4",
            "time_elapsed": 146895,
            "key_press": -1,
            "trial_index": 0,
            "trial_index_global": 89
        },
        {
            "rt": -1,
            "trial_type": "single-stim",
            "stimulus": "<div class = 'decision-top-background faded' style='background:#FF9966; width:330px;height:230px;'><img class = 'decision-stim' src= 'images/14.png'></div><div><img  class = decision-fb src = 'images/gold_coin.png'></img></div>",
            "trial_count": 4,
            "internal_chunk_id": "0-0.5-4.2-4",
            "time_elapsed": 147390,
            "key_press": -1,
            "type": "decision_FB",
            "trial_index": 0,
            "trial_index_global": 90
        },
        {
            "rt": -1,
            "trial_type": "single-stim",
            "stimulus": "",
            "internal_chunk_id": "0-0.5-4.2-4",
            "time_elapsed": 148392,
            "key_press": -1,
            "trial_index": 0,
            "trial_index_global": 91
        },
        {
            "rt": 322,
            "trial_type": "single-stim",
            "stimulus": "<div class = decision-left style='background:#C2C2FF; width:330px;height:230px;'><img class = 'decision-stim' src= 'images/15.png'></img></div><div class = decision-right style='background:#C2C2FF; width:330px;height:230px;'><img class = 'decision-stim' src= 'images/11.png'></img></div>",
            "trial_count": 5,
            "internal_chunk_id": "0-0.5-5.0-5",
            "time_elapsed": 148791,
            "key_press": 37,
            "type": "decision_first",
            "trial_index": 0,
            "trial_index_global": 92
        },
        {
            "rt": -1,
            "trial_type": "single-stim",
            "stimulus": "<div class = 'selected decision-left' style='background:#C2C2FF; width:330px;height:230px;'><img class = 'decision-stim' src= 'images/15.png'></div><div class = 'decision-right fade' style='background:#C2C2FF; width:330px;height:230px;'><img class = 'decision-stim  fade' src= 'images/11.png'></div>",
            "internal_chunk_id": "0-0.5-5.0-5",
            "time_elapsed": 149804,
            "key_press": -1,
            "trial_index": 0,
            "trial_index_global": 93
        },
        {
            "rt": 378,
            "trial_type": "single-stim",
            "stimulus": "<div class = 'decision-top-background faded' style='background:#C2C2FF; width:330px;height:230px;'><img class = 'decision-stim' src= 'images/15.png'></div><div class = decision-left style='background:#98bf21; width:330px;height:230px;'><img class = 'decision-stim' src= 'images/13.png'></img></div><div class = decision-right style='background:#98bf21; width:330px;height:230px;'><img class = 'decision-stim' src= 'images/16.png'></img></div>",
            "trial_count": 5,
            "internal_chunk_id": "0-0.5-5",
            "time_elapsed": 150295,
            "key_press": 39,
            "type": "decision_second",
            "trial_index": 0,
            "trial_index_global": 94
        },
        {
            "rt": -1,
            "trial_type": "single-stim",
            "stimulus": "<div class = 'decision-right selected' style='background:#98bf21; width:330px;height:230px;'><img class = 'decision-stim' src= 'images/16.png'></div><div class = 'fade decision-left' style='background:#98bf21; width:330px;height:230px;'><img class = 'decision-stim' src= 'images/13.png'></div>",
            "internal_chunk_id": "0-0.5-5.2-5",
            "time_elapsed": 151303,
            "key_press": -1,
            "trial_index": 0,
            "trial_index_global": 95
        },
        {
            "rt": -1,
            "trial_type": "single-stim",
            "stimulus": "<div class = 'decision-top-background faded' style='background:#98bf21; width:330px;height:230px;'><img class = 'decision-stim' src= 'images/16.png'></div><div><img  class = decision-fb src = 'images/gold_coin.png'></img></div>",
            "trial_count": 5,
            "internal_chunk_id": "0-0.5-5.2-5",
            "time_elapsed": 151808,
            "key_press": -1,
            "type": "decision_FB",
            "trial_index": 0,
            "trial_index_global": 96
        },
        {
            "rt": -1,
            "trial_type": "single-stim",
            "stimulus": "",
            "internal_chunk_id": "0-0.5-5.2-5",
            "time_elapsed": 152803,
            "key_press": -1,
            "trial_index": 0,
            "trial_index_global": 97
        },
        {
            "rt": 503,
            "trial_type": "single-stim",
            "stimulus": "<div class = decision-left style='background:#C2C2FF; width:330px;height:230px;'><img class = 'decision-stim' src= 'images/15.png'></img></div><div class = decision-right style='background:#C2C2FF; width:330px;height:230px;'><img class = 'decision-stim' src= 'images/11.png'></img></div>",
            "trial_count": 6,
            "internal_chunk_id": "0-0.5-6.0-6",
            "time_elapsed": 153423,
            "key_press": 37,
            "type": "decision_first",
            "trial_index": 0,
            "trial_index_global": 98
        },
        {
            "rt": -1,
            "trial_type": "single-stim",
            "stimulus": "<div class = 'selected decision-left' style='background:#C2C2FF; width:330px;height:230px;'><img class = 'decision-stim' src= 'images/15.png'></div><div class = 'decision-right fade' style='background:#C2C2FF; width:330px;height:230px;'><img class = 'decision-stim  fade' src= 'images/11.png'></div>",
            "internal_chunk_id": "0-0.5-6.0-6",
            "time_elapsed": 154431,
            "key_press": -1,
            "trial_index": 0,
            "trial_index_global": 99
        },
        {
            "rt": 487,
            "trial_type": "single-stim",
            "stimulus": "<div class = 'decision-top-background faded' style='background:#C2C2FF; width:330px;height:230px;'><img class = 'decision-stim' src= 'images/15.png'></div><div class = decision-left style='background:#FF9966; width:330px;height:230px;'><img class = 'decision-stim' src= 'images/14.png'></img></div><div class = decision-right style='background:#FF9966; width:330px;height:230px;'><img class = 'decision-stim' src= 'images/12.png'></img></div>",
            "trial_count": 6,
            "internal_chunk_id": "0-0.5-6",
            "time_elapsed": 154999,
            "key_press": 37,
            "type": "decision_second",
            "trial_index": 0,
            "trial_index_global": 100
        },
        {
            "rt": -1,
            "trial_type": "single-stim",
            "stimulus": "<div class = 'decision-left selected' style='background:#FF9966; width:330px;height:230px;'><img class = 'decision-stim' src= 'images/14.png'></div><div class = 'fade decision-right' style='background:#FF9966; width:330px;height:230px;'><img class = 'decision-stim' src= 'images/12.png'></div>",
            "internal_chunk_id": "0-0.5-6.2-6",
            "time_elapsed": 156007,
            "key_press": -1,
            "trial_index": 0,
            "trial_index_global": 101
        },
        {
            "rt": -1,
            "trial_type": "single-stim",
            "stimulus": "<div class = 'decision-top-background faded' style='background:#FF9966; width:330px;height:230px;'><img class = 'decision-stim' src= 'images/14.png'></div><div><img  class = decision-fb src = 'images/gold_coin.png'></img></div>",
            "trial_count": 6,
            "internal_chunk_id": "0-0.5-6.2-6",
            "time_elapsed": 156505,
            "key_press": -1,
            "type": "decision_FB",
            "trial_index": 0,
            "trial_index_global": 102
        },
        {
            "rt": -1,
            "trial_type": "single-stim",
            "stimulus": "",
            "internal_chunk_id": "0-0.5-6.2-6",
            "time_elapsed": 157506,
            "key_press": -1,
            "trial_index": 0,
            "trial_index_global": 103
        },
        {
            "rt": 295,
            "trial_type": "single-stim",
            "stimulus": "<div class = decision-left style='background:#C2C2FF; width:330px;height:230px;'><img class = 'decision-stim' src= 'images/15.png'></img></div><div class = decision-right style='background:#C2C2FF; width:330px;height:230px;'><img class = 'decision-stim' src= 'images/11.png'></img></div>",
            "trial_count": 7,
            "internal_chunk_id": "0-0.5-7.0-7",
            "time_elapsed": 157871,
            "key_press": 39,
            "type": "decision_first",
            "trial_index": 0,
            "trial_index_global": 104
        },
        {
            "rt": -1,
            "trial_type": "single-stim",
            "stimulus": "<div class = 'selected decision-right' style='background:#C2C2FF; width:330px;height:230px;'><img class = 'decision-stim' src= 'images/11.png'></div><div class = 'decision-left fade' style='background:#C2C2FF; width:330px;height:230px;'><img class = 'decision-stim  fade' src= 'images/15.png'></div>",
            "internal_chunk_id": "0-0.5-7.0-7",
            "time_elapsed": 158879,
            "key_press": -1,
            "trial_index": 0,
            "trial_index_global": 105
        },
        {
            "rt": 399,
            "trial_type": "single-stim",
            "stimulus": "<div class = 'decision-top-background faded' style='background:#C2C2FF; width:330px;height:230px;'><img class = 'decision-stim' src= 'images/11.png'></div><div class = decision-left style='background:#98bf21; width:330px;height:230px;'><img class = 'decision-stim' src= 'images/13.png'></img></div><div class = decision-right style='background:#98bf21; width:330px;height:230px;'><img class = 'decision-stim' src= 'images/16.png'></img></div>",
            "trial_count": 7,
            "internal_chunk_id": "0-0.5-7",
            "time_elapsed": 159375,
            "key_press": 37,
            "type": "decision_second",
            "trial_index": 0,
            "trial_index_global": 106
        },
        {
            "rt": -1,
            "trial_type": "single-stim",
            "stimulus": "<div class = 'decision-left selected' style='background:#98bf21; width:330px;height:230px;'><img class = 'decision-stim' src= 'images/13.png'></div><div class = 'fade decision-right' style='background:#98bf21; width:330px;height:230px;'><img class = 'decision-stim' src= 'images/16.png'></div>",
            "internal_chunk_id": "0-0.5-7.2-7",
            "time_elapsed": 160378,
            "key_press": -1,
            "trial_index": 0,
            "trial_index_global": 107
        },
        {
            "rt": -1,
            "trial_type": "single-stim",
            "stimulus": "<div class = 'decision-top-background faded' style='background:#98bf21; width:330px;height:230px;'><img class = 'decision-stim' src= 'images/13.png'></div><div style = text-align:center><p class = decision-fb style = 'color:red;font-size:60px'>0</p></div>",
            "trial_count": 7,
            "internal_chunk_id": "0-0.5-7.2-7",
            "time_elapsed": 160874,
            "key_press": -1,
            "type": "decision_FB",
            "trial_index": 0,
            "trial_index_global": 108
        },
        {
            "rt": -1,
            "trial_type": "single-stim",
            "stimulus": "",
            "internal_chunk_id": "0-0.5-7.2-7",
            "time_elapsed": 161874,
            "key_press": -1,
            "trial_index": 0,
            "trial_index_global": 109
        },
        {
            "rt": 470,
            "trial_type": "single-stim",
            "stimulus": "<div class = decision-left style='background:#C2C2FF; width:330px;height:230px;'><img class = 'decision-stim' src= 'images/15.png'></img></div><div class = decision-right style='background:#C2C2FF; width:330px;height:230px;'><img class = 'decision-stim' src= 'images/11.png'></img></div>",
            "trial_count": 8,
            "internal_chunk_id": "0-0.5-8.0-8",
            "time_elapsed": 162439,
            "key_press": 37,
            "type": "decision_first",
            "trial_index": 0,
            "trial_index_global": 110
        },
        {
            "rt": -1,
            "trial_type": "single-stim",
            "stimulus": "<div class = 'selected decision-left' style='background:#C2C2FF; width:330px;height:230px;'><img class = 'decision-stim' src= 'images/15.png'></div><div class = 'decision-right fade' style='background:#C2C2FF; width:330px;height:230px;'><img class = 'decision-stim  fade' src= 'images/11.png'></div>",
            "internal_chunk_id": "0-0.5-8.0-8",
            "time_elapsed": 163444,
            "key_press": -1,
            "trial_index": 0,
            "trial_index_global": 111
        },
        {
            "rt": 416,
            "trial_type": "single-stim",
            "stimulus": "<div class = 'decision-top-background faded' style='background:#C2C2FF; width:330px;height:230px;'><img class = 'decision-stim' src= 'images/15.png'></div><div class = decision-left style='background:#FF9966; width:330px;height:230px;'><img class = 'decision-stim' src= 'images/14.png'></img></div><div class = decision-right style='background:#FF9966; width:330px;height:230px;'><img class = 'decision-stim' src= 'images/12.png'></img></div>",
            "trial_count": 8,
            "internal_chunk_id": "0-0.5-8",
            "time_elapsed": 163943,
            "key_press": 37,
            "type": "decision_second",
            "trial_index": 0,
            "trial_index_global": 112
        },
        {
            "rt": -1,
            "trial_type": "single-stim",
            "stimulus": "<div class = 'decision-left selected' style='background:#FF9966; width:330px;height:230px;'><img class = 'decision-stim' src= 'images/14.png'></div><div class = 'fade decision-right' style='background:#FF9966; width:330px;height:230px;'><img class = 'decision-stim' src= 'images/12.png'></div>",
            "internal_chunk_id": "0-0.5-8.2-8",
            "time_elapsed": 164941,
            "key_press": -1,
            "trial_index": 0,
            "trial_index_global": 113
        },
        {
            "rt": -1,
            "trial_type": "single-stim",
            "stimulus": "<div class = 'decision-top-background faded' style='background:#FF9966; width:330px;height:230px;'><img class = 'decision-stim' src= 'images/14.png'></div><div style = text-align:center><p class = decision-fb style = 'color:red;font-size:60px'>0</p></div>",
            "trial_count": 8,
            "internal_chunk_id": "0-0.5-8.2-8",
            "time_elapsed": 165438,
            "key_press": -1,
            "type": "decision_FB",
            "trial_index": 0,
            "trial_index_global": 114
        },
        {
            "rt": -1,
            "trial_type": "single-stim",
            "stimulus": "",
            "internal_chunk_id": "0-0.5-8.2-8",
            "time_elapsed": 166438,
            "key_press": -1,
            "trial_index": 0,
            "trial_index_global": 115
        },
        {
            "rt": 490,
            "trial_type": "single-stim",
            "stimulus": "<div class = decision-left style='background:#C2C2FF; width:330px;height:230px;'><img class = 'decision-stim' src= 'images/15.png'></img></div><div class = decision-right style='background:#C2C2FF; width:330px;height:230px;'><img class = 'decision-stim' src= 'images/11.png'></img></div>",
            "trial_count": 9,
            "internal_chunk_id": "0-0.5-9.0-9",
            "time_elapsed": 167047,
            "key_press": 39,
            "type": "decision_first",
            "trial_index": 0,
            "trial_index_global": 116
        },
        {
            "rt": -1,
            "trial_type": "single-stim",
            "stimulus": "<div class = 'selected decision-right' style='background:#C2C2FF; width:330px;height:230px;'><img class = 'decision-stim' src= 'images/11.png'></div><div class = 'decision-left fade' style='background:#C2C2FF; width:330px;height:230px;'><img class = 'decision-stim  fade' src= 'images/15.png'></div>",
            "internal_chunk_id": "0-0.5-9.0-9",
            "time_elapsed": 168052,
            "key_press": -1,
            "trial_index": 0,
            "trial_index_global": 117
        },
        {
            "rt": 321,
            "trial_type": "single-stim",
            "stimulus": "<div class = 'decision-top-background faded' style='background:#C2C2FF; width:330px;height:230px;'><img class = 'decision-stim' src= 'images/11.png'></div><div class = decision-left style='background:#98bf21; width:330px;height:230px;'><img class = 'decision-stim' src= 'images/16.png'></img></div><div class = decision-right style='background:#98bf21; width:330px;height:230px;'><img class = 'decision-stim' src= 'images/13.png'></img></div>",
            "trial_count": 9,
            "internal_chunk_id": "0-0.5-9",
            "time_elapsed": 168463,
            "key_press": 39,
            "type": "decision_second",
            "trial_index": 0,
            "trial_index_global": 118
        },
        {
            "rt": -1,
            "trial_type": "single-stim",
            "stimulus": "<div class = 'decision-right selected' style='background:#98bf21; width:330px;height:230px;'><img class = 'decision-stim' src= 'images/13.png'></div><div class = 'fade decision-left' style='background:#98bf21; width:330px;height:230px;'><img class = 'decision-stim' src= 'images/16.png'></div>",
            "internal_chunk_id": "0-0.5-9.2-9",
            "time_elapsed": 169472,
            "key_press": -1,
            "trial_index": 0,
            "trial_index_global": 119
        },
        {
            "rt": -1,
            "trial_type": "single-stim",
            "stimulus": "<div class = 'decision-top-background faded' style='background:#98bf21; width:330px;height:230px;'><img class = 'decision-stim' src= 'images/13.png'></div><div><img  class = decision-fb src = 'images/gold_coin.png'></img></div>",
            "trial_count": 9,
            "internal_chunk_id": "0-0.5-9.2-9",
            "time_elapsed": 169968,
            "key_press": -1,
            "type": "decision_FB",
            "trial_index": 0,
            "trial_index_global": 120
        },
        {
            "rt": -1,
            "trial_type": "single-stim",
            "stimulus": "",
            "internal_chunk_id": "0-0.5-9.2-9",
            "time_elapsed": 170967,
            "key_press": -1,
            "trial_index": 0,
            "trial_index_global": 121
        },
        {
            "rt": 554,
            "trial_type": "single-stim",
            "stimulus": "<div class = decision-left style='background:#C2C2FF; width:330px;height:230px;'><img class = 'decision-stim' src= 'images/15.png'></img></div><div class = decision-right style='background:#C2C2FF; width:330px;height:230px;'><img class = 'decision-stim' src= 'images/11.png'></img></div>",
            "trial_count": 10,
            "internal_chunk_id": "0-0.5-10.0-10",
            "time_elapsed": 171607,
            "key_press": 37,
            "type": "decision_first",
            "trial_index": 0,
            "trial_index_global": 122
        },
        {
            "rt": -1,
            "trial_type": "single-stim",
            "stimulus": "<div class = 'selected decision-left' style='background:#C2C2FF; width:330px;height:230px;'><img class = 'decision-stim' src= 'images/15.png'></div><div class = 'decision-right fade' style='background:#C2C2FF; width:330px;height:230px;'><img class = 'decision-stim  fade' src= 'images/11.png'></div>",
            "internal_chunk_id": "0-0.5-10.0-10",
            "time_elapsed": 172623,
            "key_press": -1,
            "trial_index": 0,
            "trial_index_global": 123
        },
        {
            "rt": 375,
            "trial_type": "single-stim",
            "stimulus": "<div class = 'decision-top-background faded' style='background:#C2C2FF; width:330px;height:230px;'><img class = 'decision-stim' src= 'images/15.png'></div><div class = decision-left style='background:#98bf21; width:330px;height:230px;'><img class = 'decision-stim' src= 'images/13.png'></img></div><div class = decision-right style='background:#98bf21; width:330px;height:230px;'><img class = 'decision-stim' src= 'images/16.png'></img></div>",
            "trial_count": 10,
            "internal_chunk_id": "0-0.5-10",
            "time_elapsed": 173047,
            "key_press": 37,
            "type": "decision_second",
            "trial_index": 0,
            "trial_index_global": 124
        },
        {
            "rt": -1,
            "trial_type": "single-stim",
            "stimulus": "<div class = 'decision-left selected' style='background:#98bf21; width:330px;height:230px;'><img class = 'decision-stim' src= 'images/13.png'></div><div class = 'fade decision-right' style='background:#98bf21; width:330px;height:230px;'><img class = 'decision-stim' src= 'images/16.png'></div>",
            "internal_chunk_id": "0-0.5-10.2-10",
            "time_elapsed": 174060,
            "key_press": -1,
            "trial_index": 0,
            "trial_index_global": 125
        },
        {
            "rt": -1,
            "trial_type": "single-stim",
            "stimulus": "<div class = 'decision-top-background faded' style='background:#98bf21; width:330px;height:230px;'><img class = 'decision-stim' src= 'images/13.png'></div><div><img  class = decision-fb src = 'images/gold_coin.png'></img></div>",
            "trial_count": 10,
            "internal_chunk_id": "0-0.5-10.2-10",
            "time_elapsed": 174565,
            "key_press": -1,
            "type": "decision_FB",
            "trial_index": 0,
            "trial_index_global": 126
        },
        {
            "rt": -1,
            "trial_type": "single-stim",
            "stimulus": "",
            "internal_chunk_id": "0-0.5-10.2-10",
            "time_elapsed": 175566,
            "key_press": -1,
            "trial_index": 0,
            "trial_index_global": 127
        },
        {
            "rt": 395,
            "trial_type": "single-stim",
            "stimulus": "<div class = decision-left style='background:#C2C2FF; width:330px;height:230px;'><img class = 'decision-stim' src= 'images/15.png'></img></div><div class = decision-right style='background:#C2C2FF; width:330px;height:230px;'><img class = 'decision-stim' src= 'images/11.png'></img></div>",
            "trial_count": 11,
            "internal_chunk_id": "0-0.5-11.0-11",
            "time_elapsed": 176071,
            "key_press": 37,
            "type": "decision_first",
            "trial_index": 0,
            "trial_index_global": 128
        },
        {
            "rt": -1,
            "trial_type": "single-stim",
            "stimulus": "<div class = 'selected decision-left' style='background:#C2C2FF; width:330px;height:230px;'><img class = 'decision-stim' src= 'images/15.png'></div><div class = 'decision-right fade' style='background:#C2C2FF; width:330px;height:230px;'><img class = 'decision-stim  fade' src= 'images/11.png'></div>",
            "internal_chunk_id": "0-0.5-11.0-11",
            "time_elapsed": 177084,
            "key_press": -1,
            "trial_index": 0,
            "trial_index_global": 129
        },
        {
            "rt": 512,
            "trial_type": "single-stim",
            "stimulus": "<div class = 'decision-top-background faded' style='background:#C2C2FF; width:330px;height:230px;'><img class = 'decision-stim' src= 'images/15.png'></div><div class = decision-left style='background:#FF9966; width:330px;height:230px;'><img class = 'decision-stim' src= 'images/12.png'></img></div><div class = decision-right style='background:#FF9966; width:330px;height:230px;'><img class = 'decision-stim' src= 'images/14.png'></img></div>",
            "trial_count": 11,
            "internal_chunk_id": "0-0.5-11",
            "time_elapsed": 177663,
            "key_press": 39,
            "type": "decision_second",
            "trial_index": 0,
            "trial_index_global": 130
        },
        {
            "rt": -1,
            "trial_type": "single-stim",
            "stimulus": "<div class = 'decision-right selected' style='background:#FF9966; width:330px;height:230px;'><img class = 'decision-stim' src= 'images/14.png'></div><div class = 'fade decision-left' style='background:#FF9966; width:330px;height:230px;'><img class = 'decision-stim' src= 'images/12.png'></div>",
            "internal_chunk_id": "0-0.5-11.2-11",
            "time_elapsed": 178678,
            "key_press": -1,
            "trial_index": 0,
            "trial_index_global": 131
        },
        {
            "rt": -1,
            "trial_type": "single-stim",
            "stimulus": "<div class = 'decision-top-background faded' style='background:#FF9966; width:330px;height:230px;'><img class = 'decision-stim' src= 'images/14.png'></div><div style = text-align:center><p class = decision-fb style = 'color:red;font-size:60px'>0</p></div>",
            "trial_count": 11,
            "internal_chunk_id": "0-0.5-11.2-11",
            "time_elapsed": 179171,
            "key_press": -1,
            "type": "decision_FB",
            "trial_index": 0,
            "trial_index_global": 132
        },
        {
            "rt": -1,
            "trial_type": "single-stim",
            "stimulus": "",
            "internal_chunk_id": "0-0.5-11.2-11",
            "time_elapsed": 180171,
            "key_press": -1,
            "trial_index": 0,
            "trial_index_global": 133
        },
        {
            "rt": 590,
            "trial_type": "single-stim",
            "stimulus": "<div class = decision-left style='background:#C2C2FF; width:330px;height:230px;'><img class = 'decision-stim' src= 'images/15.png'></img></div><div class = decision-right style='background:#C2C2FF; width:330px;height:230px;'><img class = 'decision-stim' src= 'images/11.png'></img></div>",
            "trial_count": 12,
            "internal_chunk_id": "0-0.5-12.0-12",
            "time_elapsed": 180823,
            "key_press": 39,
            "type": "decision_first",
            "trial_index": 0,
            "trial_index_global": 134
        },
        {
            "rt": -1,
            "trial_type": "single-stim",
            "stimulus": "<div class = 'selected decision-right' style='background:#C2C2FF; width:330px;height:230px;'><img class = 'decision-stim' src= 'images/11.png'></div><div class = 'decision-left fade' style='background:#C2C2FF; width:330px;height:230px;'><img class = 'decision-stim  fade' src= 'images/15.png'></div>",
            "internal_chunk_id": "0-0.5-12.0-12",
            "time_elapsed": 181837,
            "key_press": -1,
            "trial_index": 0,
            "trial_index_global": 135
        },
        {
            "rt": 455,
            "trial_type": "single-stim",
            "stimulus": "<div class = 'decision-top-background faded' style='background:#C2C2FF; width:330px;height:230px;'><img class = 'decision-stim' src= 'images/11.png'></div><div class = decision-left style='background:#FF9966; width:330px;height:230px;'><img class = 'decision-stim' src= 'images/12.png'></img></div><div class = decision-right style='background:#FF9966; width:330px;height:230px;'><img class = 'decision-stim' src= 'images/14.png'></img></div>",
            "trial_count": 12,
            "internal_chunk_id": "0-0.5-12",
            "time_elapsed": 182392,
            "key_press": 39,
            "type": "decision_second",
            "trial_index": 0,
            "trial_index_global": 136
        },
        {
            "rt": -1,
            "trial_type": "single-stim",
            "stimulus": "<div class = 'decision-right selected' style='background:#FF9966; width:330px;height:230px;'><img class = 'decision-stim' src= 'images/14.png'></div><div class = 'fade decision-left' style='background:#FF9966; width:330px;height:230px;'><img class = 'decision-stim' src= 'images/12.png'></div>",
            "internal_chunk_id": "0-0.5-12.2-12",
            "time_elapsed": 183394,
            "key_press": -1,
            "trial_index": 0,
            "trial_index_global": 137
        },
        {
            "rt": -1,
            "trial_type": "single-stim",
            "stimulus": "<div class = 'decision-top-background faded' style='background:#FF9966; width:330px;height:230px;'><img class = 'decision-stim' src= 'images/14.png'></div><div style = text-align:center><p class = decision-fb style = 'color:red;font-size:60px'>0</p></div>",
            "trial_count": 12,
            "internal_chunk_id": "0-0.5-12.2-12",
            "time_elapsed": 183889,
            "key_press": -1,
            "type": "decision_FB",
            "trial_index": 0,
            "trial_index_global": 138
        },
        {
            "rt": -1,
            "trial_type": "single-stim",
            "stimulus": "",
            "internal_chunk_id": "0-0.5-12.2-12",
            "time_elapsed": 184890,
            "key_press": -1,
            "trial_index": 0,
            "trial_index_global": 139
        },
        {
            "rt": 486,
            "trial_type": "single-stim",
            "stimulus": "<div class = decision-left style='background:#C2C2FF; width:330px;height:230px;'><img class = 'decision-stim' src= 'images/11.png'></img></div><div class = decision-right style='background:#C2C2FF; width:330px;height:230px;'><img class = 'decision-stim' src= 'images/15.png'></img></div>",
            "trial_count": 13,
            "internal_chunk_id": "0-0.5-13.0-13",
            "time_elapsed": 185447,
            "key_press": 37,
            "type": "decision_first",
            "trial_index": 0,
            "trial_index_global": 140
        },
        {
            "rt": -1,
            "trial_type": "single-stim",
            "stimulus": "<div class = 'selected decision-left' style='background:#C2C2FF; width:330px;height:230px;'><img class = 'decision-stim' src= 'images/11.png'></div><div class = 'decision-right fade' style='background:#C2C2FF; width:330px;height:230px;'><img class = 'decision-stim  fade' src= 'images/15.png'></div>",
            "internal_chunk_id": "0-0.5-13.0-13",
            "time_elapsed": 186459,
            "key_press": -1,
            "trial_index": 0,
            "trial_index_global": 141
        },
        {
            "rt": 424,
            "trial_type": "single-stim",
            "stimulus": "<div class = 'decision-top-background faded' style='background:#C2C2FF; width:330px;height:230px;'><img class = 'decision-stim' src= 'images/11.png'></div><div class = decision-left style='background:#FF9966; width:330px;height:230px;'><img class = 'decision-stim' src= 'images/12.png'></img></div><div class = decision-right style='background:#FF9966; width:330px;height:230px;'><img class = 'decision-stim' src= 'images/14.png'></img></div>",
            "trial_count": 13,
            "internal_chunk_id": "0-0.5-13",
            "time_elapsed": 186970,
            "key_press": 39,
            "type": "decision_second",
            "trial_index": 0,
            "trial_index_global": 142
        },
        {
            "rt": -1,
            "trial_type": "single-stim",
            "stimulus": "<div class = 'decision-right selected' style='background:#FF9966; width:330px;height:230px;'><img class = 'decision-stim' src= 'images/14.png'></div><div class = 'fade decision-left' style='background:#FF9966; width:330px;height:230px;'><img class = 'decision-stim' src= 'images/12.png'></div>",
            "internal_chunk_id": "0-0.5-13.2-13",
            "time_elapsed": 187972,
            "key_press": -1,
            "trial_index": 0,
            "trial_index_global": 143
        },
        {
            "rt": -1,
            "trial_type": "single-stim",
            "stimulus": "<div class = 'decision-top-background faded' style='background:#FF9966; width:330px;height:230px;'><img class = 'decision-stim' src= 'images/14.png'></div><div><img  class = decision-fb src = 'images/gold_coin.png'></img></div>",
            "trial_count": 13,
            "internal_chunk_id": "0-0.5-13.2-13",
            "time_elapsed": 188466,
            "key_press": -1,
            "type": "decision_FB",
            "trial_index": 0,
            "trial_index_global": 144
        },
        {
            "rt": -1,
            "trial_type": "single-stim",
            "stimulus": "",
            "internal_chunk_id": "0-0.5-13.2-13",
            "time_elapsed": 189466,
            "key_press": -1,
            "trial_index": 0,
            "trial_index_global": 145
        },
        {
            "rt": 534,
            "trial_type": "single-stim",
            "stimulus": "<div class = decision-left style='background:#C2C2FF; width:330px;height:230px;'><img class = 'decision-stim' src= 'images/11.png'></img></div><div class = decision-right style='background:#C2C2FF; width:330px;height:230px;'><img class = 'decision-stim' src= 'images/15.png'></img></div>",
            "trial_count": 14,
            "internal_chunk_id": "0-0.5-14.0-14",
            "time_elapsed": 190079,
            "key_press": 37,
            "type": "decision_first",
            "trial_index": 0,
            "trial_index_global": 146
        },
        {
            "rt": -1,
            "trial_type": "single-stim",
            "stimulus": "<div class = 'selected decision-left' style='background:#C2C2FF; width:330px;height:230px;'><img class = 'decision-stim' src= 'images/11.png'></div><div class = 'decision-right fade' style='background:#C2C2FF; width:330px;height:230px;'><img class = 'decision-stim  fade' src= 'images/15.png'></div>",
            "internal_chunk_id": "0-0.5-14.0-14",
            "time_elapsed": 191085,
            "key_press": -1,
            "trial_index": 0,
            "trial_index_global": 147
        },
        {
            "rt": 430,
            "trial_type": "single-stim",
            "stimulus": "<div class = 'decision-top-background faded' style='background:#C2C2FF; width:330px;height:230px;'><img class = 'decision-stim' src= 'images/11.png'></div><div class = decision-left style='background:#FF9966; width:330px;height:230px;'><img class = 'decision-stim' src= 'images/12.png'></img></div><div class = decision-right style='background:#FF9966; width:330px;height:230px;'><img class = 'decision-stim' src= 'images/14.png'></img></div>",
            "trial_count": 14,
            "internal_chunk_id": "0-0.5-14",
            "time_elapsed": 191599,
            "key_press": 39,
            "type": "decision_second",
            "trial_index": 0,
            "trial_index_global": 148
        },
        {
            "rt": -1,
            "trial_type": "single-stim",
            "stimulus": "<div class = 'decision-right selected' style='background:#FF9966; width:330px;height:230px;'><img class = 'decision-stim' src= 'images/14.png'></div><div class = 'fade decision-left' style='background:#FF9966; width:330px;height:230px;'><img class = 'decision-stim' src= 'images/12.png'></div>",
            "internal_chunk_id": "0-0.5-14.2-14",
            "time_elapsed": 192609,
            "key_press": -1,
            "trial_index": 0,
            "trial_index_global": 149
        },
        {
            "rt": -1,
            "trial_type": "single-stim",
            "stimulus": "<div class = 'decision-top-background faded' style='background:#FF9966; width:330px;height:230px;'><img class = 'decision-stim' src= 'images/14.png'></div><div style = text-align:center><p class = decision-fb style = 'color:red;font-size:60px'>0</p></div>",
            "trial_count": 14,
            "internal_chunk_id": "0-0.5-14.2-14",
            "time_elapsed": 193112,
            "key_press": -1,
            "type": "decision_FB",
            "trial_index": 0,
            "trial_index_global": 150
        },
        {
            "rt": -1,
            "trial_type": "single-stim",
            "stimulus": "",
            "internal_chunk_id": "0-0.5-14.2-14",
            "time_elapsed": 194111,
            "key_press": -1,
            "trial_index": 0,
            "trial_index_global": 151
        },
        {
            "rt": 505,
            "trial_type": "single-stim",
            "stimulus": "<div class = decision-left style='background:#C2C2FF; width:330px;height:230px;'><img class = 'decision-stim' src= 'images/15.png'></img></div><div class = decision-right style='background:#C2C2FF; width:330px;height:230px;'><img class = 'decision-stim' src= 'images/11.png'></img></div>",
            "trial_count": 15,
            "internal_chunk_id": "0-0.5-15.0-15",
            "time_elapsed": 194687,
            "key_press": 37,
            "type": "decision_first",
            "trial_index": 0,
            "trial_index_global": 152
        },
        {
            "rt": -1,
            "trial_type": "single-stim",
            "stimulus": "<div class = 'selected decision-left' style='background:#C2C2FF; width:330px;height:230px;'><img class = 'decision-stim' src= 'images/15.png'></div><div class = 'decision-right fade' style='background:#C2C2FF; width:330px;height:230px;'><img class = 'decision-stim  fade' src= 'images/11.png'></div>",
            "internal_chunk_id": "0-0.5-15.0-15",
            "time_elapsed": 195692,
            "key_press": -1,
            "trial_index": 0,
            "trial_index_global": 153
        },
        {
            "rt": 463,
            "trial_type": "single-stim",
            "stimulus": "<div class = 'decision-top-background faded' style='background:#C2C2FF; width:330px;height:230px;'><img class = 'decision-stim' src= 'images/15.png'></div><div class = decision-left style='background:#FF9966; width:330px;height:230px;'><img class = 'decision-stim' src= 'images/14.png'></img></div><div class = decision-right style='background:#FF9966; width:330px;height:230px;'><img class = 'decision-stim' src= 'images/12.png'></img></div>",
            "trial_count": 15,
            "internal_chunk_id": "0-0.5-15",
            "time_elapsed": 196256,
            "key_press": 37,
            "type": "decision_second",
            "trial_index": 0,
            "trial_index_global": 154
        },
        {
            "rt": -1,
            "trial_type": "single-stim",
            "stimulus": "<div class = 'decision-left selected' style='background:#FF9966; width:330px;height:230px;'><img class = 'decision-stim' src= 'images/14.png'></div><div class = 'fade decision-right' style='background:#FF9966; width:330px;height:230px;'><img class = 'decision-stim' src= 'images/12.png'></div>",
            "internal_chunk_id": "0-0.5-15.2-15",
            "time_elapsed": 197270,
            "key_press": -1,
            "trial_index": 0,
            "trial_index_global": 155
        },
        {
            "rt": -1,
            "trial_type": "single-stim",
            "stimulus": "<div class = 'decision-top-background faded' style='background:#FF9966; width:330px;height:230px;'><img class = 'decision-stim' src= 'images/14.png'></div><div><img  class = decision-fb src = 'images/gold_coin.png'></img></div>",
            "trial_count": 15,
            "internal_chunk_id": "0-0.5-15.2-15",
            "time_elapsed": 197765,
            "key_press": -1,
            "type": "decision_FB",
            "trial_index": 0,
            "trial_index_global": 156
        },
        {
            "rt": -1,
            "trial_type": "single-stim",
            "stimulus": "",
            "internal_chunk_id": "0-0.5-15.2-15",
            "time_elapsed": 198764,
            "key_press": -1,
            "trial_index": 0,
            "trial_index_global": 157
        },
        {
            "rt": 404,
            "trial_type": "single-stim",
            "stimulus": "<div class = decision-left style='background:#C2C2FF; width:330px;height:230px;'><img class = 'decision-stim' src= 'images/15.png'></img></div><div class = decision-right style='background:#C2C2FF; width:330px;height:230px;'><img class = 'decision-stim' src= 'images/11.png'></img></div>",
            "trial_count": 16,
            "internal_chunk_id": "0-0.5-16.0-16",
            "time_elapsed": 199256,
            "key_press": 39,
            "type": "decision_first",
            "trial_index": 0,
            "trial_index_global": 158
        },
        {
            "rt": -1,
            "trial_type": "single-stim",
            "stimulus": "<div class = 'selected decision-right' style='background:#C2C2FF; width:330px;height:230px;'><img class = 'decision-stim' src= 'images/11.png'></div><div class = 'decision-left fade' style='background:#C2C2FF; width:330px;height:230px;'><img class = 'decision-stim  fade' src= 'images/15.png'></div>",
            "internal_chunk_id": "0-0.5-16.0-16",
            "time_elapsed": 200271,
            "key_press": -1,
            "trial_index": 0,
            "trial_index_global": 159
        },
        {
            "rt": 372,
            "trial_type": "single-stim",
            "stimulus": "<div class = 'decision-top-background faded' style='background:#C2C2FF; width:330px;height:230px;'><img class = 'decision-stim' src= 'images/11.png'></div><div class = decision-left style='background:#FF9966; width:330px;height:230px;'><img class = 'decision-stim' src= 'images/14.png'></img></div><div class = decision-right style='background:#FF9966; width:330px;height:230px;'><img class = 'decision-stim' src= 'images/12.png'></img></div>",
            "trial_count": 16,
            "internal_chunk_id": "0-0.5-16",
            "time_elapsed": 200720,
            "key_press": 37,
            "type": "decision_second",
            "trial_index": 0,
            "trial_index_global": 160
        },
        {
            "rt": -1,
            "trial_type": "single-stim",
