{
    "AutoApprovalTime": "2015-03-12T01:56:29Z",
    "AssignmentId": "3E7TUJ2EGCMMMIOIVVR3P3RJBJTD9U",
    "WorkerId": "A2HBI8BAE2C5QH",
    "AcceptTime": "2015-03-10T01:00:58Z",
    "HITId": "363A7XIFV4MJYY0GOJ0W20CPME0VAH",
    "Assignment": "",
    "answer": [
        {
            "rt": 31983,
            "trial_type": "text",
            "internal_chunk_id": "0-0",
            "time_elapsed": 32075,
            "key_press": 13,
            "trial_index": 0,
            "trial_index_global": 0
        },
        {
            "rt": -1,
            "trial_type": "single-stim",
            "stimulus": "",
            "internal_chunk_id": "0-0",
            "time_elapsed": 33089,
            "key_press": -1,
            "global_params": {
                "second_stage_stim": {
                    "stimulus": [
                        "<div class = decision-left style='background:#E0C2FF; width:330px;height:230px;'><img class = 'decision-stim' src= 'images/84.png'></img></div><div class = decision-right style='background:#E0C2FF; width:330px;height:230px;'><img class = 'decision-stim' src= 'images/83.png'></img></div>",
                        "<div class = decision-left style='background:#E0C2FF; width:330px;height:230px;'><img class = 'decision-stim' src= 'images/83.png'></img></div><div class = decision-right style='background:#E0C2FF; width:330px;height:230px;'><img class = 'decision-stim' src= 'images/84.png'></img></div>",
                        "<div class = decision-left style='background:#CCFF99; width:330px;height:230px;'><img class = 'decision-stim' src= 'images/85.png'></img></div><div class = decision-right style='background:#CCFF99; width:330px;height:230px;'><img class = 'decision-stim' src= 'images/80.png'></img></div>",
                        "<div class = decision-left style='background:#CCFF99; width:330px;height:230px;'><img class = 'decision-stim' src= 'images/80.png'></img></div><div class = decision-right style='background:#CCFF99; width:330px;height:230px;'><img class = 'decision-stim' src= 'images/85.png'></img></div>"
                    ],
                    "id": [
                        [
                            2,
                            3
                        ],
                        [
                            3,
                            2
                        ],
                        [
                            4,
                            5
                        ],
                        [
                            5,
                            4
                        ]
                    ]
                },
                "stims": [
                    "images/82.png",
                    "images/81.png",
                    "images/84.png",
                    "images/83.png",
                    "images/85.png",
                    "images/80.png"
                ],
                "fs_stim": [
                    {
                        "stimulus": "<div class = decision-left style='background:#F1B8D4; width:330px;height:230px;'><img class = 'decision-stim' src= 'images/82.png'></img></div><div class = decision-right style='background:#F1B8D4; width:330px;height:230px;'><img class = 'decision-stim' src= 'images/81.png'></img></div>",
                        "id": [
                            0,
                            1
                        ]
                    },
                    {
                        "stimulus": "<div class = decision-left style='background:#F1B8D4; width:330px;height:230px;'><img class = 'decision-stim' src= 'images/81.png'></img></div><div class = decision-right style='background:#F1B8D4; width:330px;height:230px;'><img class = 'decision-stim' src= 'images/82.png'></img></div>",
                        "id": [
                            1,
                            0
                        ]
                    }
                ],
                "condition": "practice",
                "actions": [
                    37,
                    39
                ]
            },
            "type": "decision_global",
            "trial_index": 0,
            "trial_index_global": 1
        },
        {
            "rt": 1247,
            "trial_type": "single-stim",
            "stimulus": "<div class = decision-left style='background:#F1B8D4; width:330px;height:230px;'><img class = 'decision-stim' src= 'images/82.png'></img></div><div class = decision-right style='background:#F1B8D4; width:330px;height:230px;'><img class = 'decision-stim' src= 'images/81.png'></img></div>",
            "trial_count": 0,
            "internal_chunk_id": "0-0.2-0.0-0",
            "time_elapsed": 34449,
            "key_press": 39,
            "type": "decision_first",
            "trial_index": 0,
            "trial_index_global": 2
        },
        {
            "rt": -1,
            "trial_type": "single-stim",
            "stimulus": "<div class = 'selected decision-right' style='background:#F1B8D4; width:330px;height:230px;'><img class = 'decision-stim' src= 'images/81.png'></div><div class = 'decision-left fade' style='background:#F1B8D4; width:330px;height:230px;'><img class = 'decision-stim  fade' src= 'images/82.png'></div>",
            "internal_chunk_id": "0-0.2-0.0-0",
            "time_elapsed": 35452,
            "key_press": -1,
            "trial_index": 0,
            "trial_index_global": 3
        },
        {
            "rt": 1698,
            "trial_type": "single-stim",
            "stimulus": "<div class = 'decision-top-background faded' style='background:#F1B8D4; width:330px;height:230px;'><img class = 'decision-stim' src= 'images/81.png'></div><div class = decision-left style='background:#E0C2FF; width:330px;height:230px;'><img class = 'decision-stim' src= 'images/83.png'></img></div><div class = decision-right style='background:#E0C2FF; width:330px;height:230px;'><img class = 'decision-stim' src= 'images/84.png'></img></div>",
            "trial_count": 0,
            "internal_chunk_id": "0-0.2-0",
            "time_elapsed": 37281,
            "key_press": 37,
            "type": "decision_second",
            "trial_index": 0,
            "trial_index_global": 4
        },
        {
            "rt": -1,
            "trial_type": "single-stim",
            "stimulus": "<div class = 'decision-left selected' style='background:#E0C2FF; width:330px;height:230px;'><img class = 'decision-stim' src= 'images/83.png'></div><div class = 'fade decision-right' style='background:#E0C2FF; width:330px;height:230px;'><img class = 'decision-stim' src= 'images/84.png'></div>",
            "internal_chunk_id": "0-0.2-0.2-0",
            "time_elapsed": 38283,
            "key_press": -1,
            "trial_index": 0,
            "trial_index_global": 5
        },
        {
            "rt": -1,
            "trial_type": "single-stim",
            "stimulus": "<div class = 'decision-top-background faded' style='background:#E0C2FF; width:330px;height:230px;'><img class = 'decision-stim' src= 'images/83.png'></div><div><img  class = decision-fb src = 'images/gold_coin.png'></img></div>",
            "trial_count": 0,
            "internal_chunk_id": "0-0.2-0.2-0",
            "time_elapsed": 38785,
            "key_press": -1,
            "type": "decision_FB",
            "trial_index": 0,
            "trial_index_global": 6
        },
        {
            "rt": -1,
            "trial_type": "single-stim",
            "stimulus": "",
            "internal_chunk_id": "0-0.2-0.2-0",
            "time_elapsed": 39786,
            "key_press": -1,
            "trial_index": 0,
            "trial_index_global": 7
        },
        {
            "rt": 981,
            "trial_type": "single-stim",
            "stimulus": "<div class = decision-left style='background:#F1B8D4; width:330px;height:230px;'><img class = 'decision-stim' src= 'images/82.png'></img></div><div class = decision-right style='background:#F1B8D4; width:330px;height:230px;'><img class = 'decision-stim' src= 'images/81.png'></img></div>",
            "trial_count": 1,
            "internal_chunk_id": "0-0.2-1.0-1",
            "time_elapsed": 40873,
            "key_press": 39,
            "type": "decision_first",
            "trial_index": 0,
            "trial_index_global": 8
        },
        {
            "rt": -1,
            "trial_type": "single-stim",
            "stimulus": "<div class = 'selected decision-right' style='background:#F1B8D4; width:330px;height:230px;'><img class = 'decision-stim' src= 'images/81.png'></div><div class = 'decision-left fade' style='background:#F1B8D4; width:330px;height:230px;'><img class = 'decision-stim  fade' src= 'images/82.png'></div>",
            "internal_chunk_id": "0-0.2-1.0-1",
            "time_elapsed": 41875,
            "key_press": -1,
            "trial_index": 0,
            "trial_index_global": 9
        },
        {
            "rt": 612,
            "trial_type": "single-stim",
            "stimulus": "<div class = 'decision-top-background faded' style='background:#F1B8D4; width:330px;height:230px;'><img class = 'decision-stim' src= 'images/81.png'></div><div class = decision-left style='background:#E0C2FF; width:330px;height:230px;'><img class = 'decision-stim' src= 'images/84.png'></img></div><div class = decision-right style='background:#E0C2FF; width:330px;height:230px;'><img class = 'decision-stim' src= 'images/83.png'></img></div>",
            "trial_count": 1,
            "internal_chunk_id": "0-0.2-1",
            "time_elapsed": 42592,
            "key_press": 39,
            "type": "decision_second",
            "trial_index": 0,
            "trial_index_global": 10
        },
        {
            "rt": -1,
            "trial_type": "single-stim",
            "stimulus": "<div class = 'decision-right selected' style='background:#E0C2FF; width:330px;height:230px;'><img class = 'decision-stim' src= 'images/83.png'></div><div class = 'fade decision-left' style='background:#E0C2FF; width:330px;height:230px;'><img class = 'decision-stim' src= 'images/84.png'></div>",
            "internal_chunk_id": "0-0.2-1.2-1",
            "time_elapsed": 43595,
            "key_press": -1,
            "trial_index": 0,
            "trial_index_global": 11
        },
        {
            "rt": -1,
            "trial_type": "single-stim",
            "stimulus": "<div class = 'decision-top-background faded' style='background:#E0C2FF; width:330px;height:230px;'><img class = 'decision-stim' src= 'images/83.png'></div><div><img  class = decision-fb src = 'images/gold_coin.png'></img></div>",
            "trial_count": 1,
            "internal_chunk_id": "0-0.2-1.2-1",
            "time_elapsed": 44096,
            "key_press": -1,
            "type": "decision_FB",
            "trial_index": 0,
            "trial_index_global": 12
        },
        {
            "rt": -1,
            "trial_type": "single-stim",
            "stimulus": "",
            "internal_chunk_id": "0-0.2-1.2-1",
            "time_elapsed": 45097,
            "key_press": -1,
            "trial_index": 0,
            "trial_index_global": 13
        },
        {
            "rt": 582,
            "trial_type": "single-stim",
            "stimulus": "<div class = decision-left style='background:#F1B8D4; width:330px;height:230px;'><img class = 'decision-stim' src= 'images/82.png'></img></div><div class = decision-right style='background:#F1B8D4; width:330px;height:230px;'><img class = 'decision-stim' src= 'images/81.png'></img></div>",
            "trial_count": 2,
            "internal_chunk_id": "0-0.2-2.0-2",
            "time_elapsed": 45784,
            "key_press": 39,
            "type": "decision_first",
            "trial_index": 0,
            "trial_index_global": 14
        },
        {
            "rt": -1,
            "trial_type": "single-stim",
            "stimulus": "<div class = 'selected decision-right' style='background:#F1B8D4; width:330px;height:230px;'><img class = 'decision-stim' src= 'images/81.png'></div><div class = 'decision-left fade' style='background:#F1B8D4; width:330px;height:230px;'><img class = 'decision-stim  fade' src= 'images/82.png'></div>",
            "internal_chunk_id": "0-0.2-2.0-2",
            "time_elapsed": 46787,
            "key_press": -1,
            "trial_index": 0,
            "trial_index_global": 15
        },
        {
            "rt": 796,
            "trial_type": "single-stim",
            "stimulus": "<div class = 'decision-top-background faded' style='background:#F1B8D4; width:330px;height:230px;'><img class = 'decision-stim' src= 'images/81.png'></div><div class = decision-left style='background:#CCFF99; width:330px;height:230px;'><img class = 'decision-stim' src= 'images/85.png'></img></div><div class = decision-right style='background:#CCFF99; width:330px;height:230px;'><img class = 'decision-stim' src= 'images/80.png'></img></div>",
            "trial_count": 2,
            "internal_chunk_id": "0-0.2-2",
            "time_elapsed": 47728,
            "key_press": 37,
            "type": "decision_second",
            "trial_index": 0,
            "trial_index_global": 16
        },
        {
            "rt": -1,
            "trial_type": "single-stim",
            "stimulus": "<div class = 'decision-left selected' style='background:#CCFF99; width:330px;height:230px;'><img class = 'decision-stim' src= 'images/85.png'></div><div class = 'fade decision-right' style='background:#CCFF99; width:330px;height:230px;'><img class = 'decision-stim' src= 'images/80.png'></div>",
            "internal_chunk_id": "0-0.2-2.2-2",
            "time_elapsed": 48730,
            "key_press": -1,
            "trial_index": 0,
            "trial_index_global": 17
        },
        {
            "rt": -1,
            "trial_type": "single-stim",
            "stimulus": "<div class = 'decision-top-background faded' style='background:#CCFF99; width:330px;height:230px;'><img class = 'decision-stim' src= 'images/85.png'></div><div><img  class = decision-fb src = 'images/gold_coin.png'></img></div>",
            "trial_count": 2,
            "internal_chunk_id": "0-0.2-2.2-2",
            "time_elapsed": 49232,
            "key_press": -1,
            "type": "decision_FB",
            "trial_index": 0,
            "trial_index_global": 18
        },
        {
            "rt": -1,
            "trial_type": "single-stim",
            "stimulus": "",
            "internal_chunk_id": "0-0.2-2.2-2",
            "time_elapsed": 50234,
            "key_press": -1,
            "trial_index": 0,
            "trial_index_global": 19
        },
        {
            "rt": 700,
            "trial_type": "single-stim",
            "stimulus": "<div class = decision-left style='background:#F1B8D4; width:330px;height:230px;'><img class = 'decision-stim' src= 'images/81.png'></img></div><div class = decision-right style='background:#F1B8D4; width:330px;height:230px;'><img class = 'decision-stim' src= 'images/82.png'></img></div>",
            "trial_count": 3,
            "internal_chunk_id": "0-0.2-3.0-3",
            "time_elapsed": 51080,
            "key_press": 37,
            "type": "decision_first",
            "trial_index": 0,
            "trial_index_global": 20
        },
        {
            "rt": -1,
            "trial_type": "single-stim",
            "stimulus": "<div class = 'selected decision-left' style='background:#F1B8D4; width:330px;height:230px;'><img class = 'decision-stim' src= 'images/81.png'></div><div class = 'decision-right fade' style='background:#F1B8D4; width:330px;height:230px;'><img class = 'decision-stim  fade' src= 'images/82.png'></div>",
            "internal_chunk_id": "0-0.2-3.0-3",
            "time_elapsed": 52083,
            "key_press": -1,
            "trial_index": 0,
            "trial_index_global": 21
        },
        {
            "rt": 675,
            "trial_type": "single-stim",
            "stimulus": "<div class = 'decision-top-background faded' style='background:#F1B8D4; width:330px;height:230px;'><img class = 'decision-stim' src= 'images/81.png'></div><div class = decision-left style='background:#CCFF99; width:330px;height:230px;'><img class = 'decision-stim' src= 'images/85.png'></img></div><div class = decision-right style='background:#CCFF99; width:330px;height:230px;'><img class = 'decision-stim' src= 'images/80.png'></img></div>",
            "trial_count": 3,
            "internal_chunk_id": "0-0.2-3",
            "time_elapsed": 52888,
            "key_press": 37,
            "type": "decision_second",
            "trial_index": 0,
            "trial_index_global": 22
        },
        {
            "rt": -1,
            "trial_type": "single-stim",
            "stimulus": "<div class = 'decision-left selected' style='background:#CCFF99; width:330px;height:230px;'><img class = 'decision-stim' src= 'images/85.png'></div><div class = 'fade decision-right' style='background:#CCFF99; width:330px;height:230px;'><img class = 'decision-stim' src= 'images/80.png'></div>",
            "internal_chunk_id": "0-0.2-3.2-3",
            "time_elapsed": 53890,
            "key_press": -1,
            "trial_index": 0,
            "trial_index_global": 23
        },
        {
            "rt": -1,
            "trial_type": "single-stim",
            "stimulus": "<div class = 'decision-top-background faded' style='background:#CCFF99; width:330px;height:230px;'><img class = 'decision-stim' src= 'images/85.png'></div><div style = text-align:center><p class = decision-fb style = 'color:red;font-size:60px'>0</p></div>",
            "trial_count": 3,
            "internal_chunk_id": "0-0.2-3.2-3",
            "time_elapsed": 54391,
            "key_press": -1,
            "type": "decision_FB",
            "trial_index": 0,
            "trial_index_global": 24
        },
        {
            "rt": -1,
            "trial_type": "single-stim",
            "stimulus": "",
            "internal_chunk_id": "0-0.2-3.2-3",
            "time_elapsed": 55392,
            "key_press": -1,
            "trial_index": 0,
            "trial_index_global": 25
        },
        {
            "rt": 798,
            "trial_type": "single-stim",
            "stimulus": "<div class = decision-left style='background:#F1B8D4; width:330px;height:230px;'><img class = 'decision-stim' src= 'images/81.png'></img></div><div class = decision-right style='background:#F1B8D4; width:330px;height:230px;'><img class = 'decision-stim' src= 'images/82.png'></img></div>",
            "trial_count": 4,
            "internal_chunk_id": "0-0.2-4.0-4",
            "time_elapsed": 56344,
            "key_press": 37,
            "type": "decision_first",
            "trial_index": 0,
            "trial_index_global": 26
        },
        {
            "rt": -1,
            "trial_type": "single-stim",
            "stimulus": "<div class = 'selected decision-left' style='background:#F1B8D4; width:330px;height:230px;'><img class = 'decision-stim' src= 'images/81.png'></div><div class = 'decision-right fade' style='background:#F1B8D4; width:330px;height:230px;'><img class = 'decision-stim  fade' src= 'images/82.png'></div>",
            "internal_chunk_id": "0-0.2-4.0-4",
            "time_elapsed": 57346,
            "key_press": -1,
            "trial_index": 0,
            "trial_index_global": 27
        },
        {
            "rt": 620,
            "trial_type": "single-stim",
            "stimulus": "<div class = 'decision-top-background faded' style='background:#F1B8D4; width:330px;height:230px;'><img class = 'decision-stim' src= 'images/81.png'></div><div class = decision-left style='background:#CCFF99; width:330px;height:230px;'><img class = 'decision-stim' src= 'images/80.png'></img></div><div class = decision-right style='background:#CCFF99; width:330px;height:230px;'><img class = 'decision-stim' src= 'images/85.png'></img></div>",
            "trial_count": 4,
            "internal_chunk_id": "0-0.2-4",
            "time_elapsed": 58095,
            "key_press": 37,
            "type": "decision_second",
            "trial_index": 0,
            "trial_index_global": 28
        },
        {
            "rt": -1,
            "trial_type": "single-stim",
            "stimulus": "<div class = 'decision-left selected' style='background:#CCFF99; width:330px;height:230px;'><img class = 'decision-stim' src= 'images/80.png'></div><div class = 'fade decision-right' style='background:#CCFF99; width:330px;height:230px;'><img class = 'decision-stim' src= 'images/85.png'></div>",
            "internal_chunk_id": "0-0.2-4.2-4",
            "time_elapsed": 59098,
            "key_press": -1,
            "trial_index": 0,
            "trial_index_global": 29
        },
        {
            "rt": -1,
            "trial_type": "single-stim",
            "stimulus": "<div class = 'decision-top-background faded' style='background:#CCFF99; width:330px;height:230px;'><img class = 'decision-stim' src= 'images/80.png'></div><div style = text-align:center><p class = decision-fb style = 'color:red;font-size:60px'>0</p></div>",
            "trial_count": 4,
            "internal_chunk_id": "0-0.2-4.2-4",
            "time_elapsed": 59599,
            "key_press": -1,
            "type": "decision_FB",
            "trial_index": 0,
            "trial_index_global": 30
        },
        {
            "rt": -1,
            "trial_type": "single-stim",
            "stimulus": "",
            "internal_chunk_id": "0-0.2-4.2-4",
            "time_elapsed": 60601,
            "key_press": -1,
            "trial_index": 0,
            "trial_index_global": 31
        },
        {
            "rt": -1,
            "trial_type": "single-stim",
            "stimulus": "<div class = decision-left style='background:#F1B8D4; width:330px;height:230px;'><img class = 'decision-stim' src= 'images/81.png'></img></div><div class = decision-right style='background:#F1B8D4; width:330px;height:230px;'><img class = 'decision-stim' src= 'images/82.png'></img></div>",
            "trial_count": 5,
            "internal_chunk_id": "0-0.2-5.0-5",
            "time_elapsed": 62603,
            "key_press": -1,
            "type": "decision_first",
            "trial_index": 0,
            "trial_index_global": 32
        },
        {
            "rt": -1,
            "trial_type": "single-stim",
            "internal_chunk_id": "0-0.2-5.0-5",
            "time_elapsed": 63604,
            "key_press": -1,
            "trial_index": 0,
            "trial_index_global": 33
        },
        {
            "rt": -1,
            "trial_type": "single-stim",
            "stimulus": "<div class = centerbox style = text-align:center><p style = font-size:30px>Please respond faster </p></div>",
            "trial_count": 5,
            "internal_chunk_id": "0-0.2-5",
            "time_elapsed": 65607,
            "key_press": -1,
            "type": "decision_second",
            "trial_index": 0,
            "trial_index_global": 34
        },
        {
            "rt": -1,
            "trial_type": "single-stim",
            "stimulus": "",
            "internal_chunk_id": "0-0.2-5.3-5",
            "time_elapsed": 66609,
            "key_press": -1,
            "trial_index": 0,
            "trial_index_global": 35
        },
        {
            "rt": 710,
            "trial_type": "single-stim",
            "stimulus": "<div class = decision-left style='background:#F1B8D4; width:330px;height:230px;'><img class = 'decision-stim' src= 'images/82.png'></img></div><div class = decision-right style='background:#F1B8D4; width:330px;height:230px;'><img class = 'decision-stim' src= 'images/81.png'></img></div>",
            "trial_count": 6,
            "internal_chunk_id": "0-0.2-6.0-6",
            "time_elapsed": 67448,
            "key_press": 39,
            "type": "decision_first",
            "trial_index": 0,
            "trial_index_global": 36
        },
        {
            "rt": -1,
            "trial_type": "single-stim",
            "stimulus": "<div class = 'selected decision-right' style='background:#F1B8D4; width:330px;height:230px;'><img class = 'decision-stim' src= 'images/81.png'></div><div class = 'decision-left fade' style='background:#F1B8D4; width:330px;height:230px;'><img class = 'decision-stim  fade' src= 'images/82.png'></div>",
            "internal_chunk_id": "0-0.2-6.0-6",
            "time_elapsed": 68451,
            "key_press": -1,
            "trial_index": 0,
            "trial_index_global": 37
        },
        {
            "rt": 738,
            "trial_type": "single-stim",
            "stimulus": "<div class = 'decision-top-background faded' style='background:#F1B8D4; width:330px;height:230px;'><img class = 'decision-stim' src= 'images/81.png'></div><div class = decision-left style='background:#CCFF99; width:330px;height:230px;'><img class = 'decision-stim' src= 'images/80.png'></img></div><div class = decision-right style='background:#CCFF99; width:330px;height:230px;'><img class = 'decision-stim' src= 'images/85.png'></img></div>",
            "trial_count": 6,
            "internal_chunk_id": "0-0.2-6",
            "time_elapsed": 69312,
            "key_press": 39,
            "type": "decision_second",
            "trial_index": 0,
            "trial_index_global": 38
        },
        {
            "rt": -1,
            "trial_type": "single-stim",
            "stimulus": "<div class = 'decision-right selected' style='background:#CCFF99; width:330px;height:230px;'><img class = 'decision-stim' src= 'images/85.png'></div><div class = 'fade decision-left' style='background:#CCFF99; width:330px;height:230px;'><img class = 'decision-stim' src= 'images/80.png'></div>",
            "internal_chunk_id": "0-0.2-6.2-6",
            "time_elapsed": 70315,
            "key_press": -1,
            "trial_index": 0,
            "trial_index_global": 39
        },
        {
            "rt": -1,
            "trial_type": "single-stim",
            "stimulus": "<div class = 'decision-top-background faded' style='background:#CCFF99; width:330px;height:230px;'><img class = 'decision-stim' src= 'images/85.png'></div><div><img  class = decision-fb src = 'images/gold_coin.png'></img></div>",
            "trial_count": 6,
            "internal_chunk_id": "0-0.2-6.2-6",
            "time_elapsed": 70816,
            "key_press": -1,
            "type": "decision_FB",
            "trial_index": 0,
            "trial_index_global": 40
        },
        {
            "rt": -1,
            "trial_type": "single-stim",
            "stimulus": "",
            "internal_chunk_id": "0-0.2-6.2-6",
            "time_elapsed": 71816,
            "key_press": -1,
            "trial_index": 0,
            "trial_index_global": 41
        },
        {
            "rt": 533,
            "trial_type": "single-stim",
            "stimulus": "<div class = decision-left style='background:#F1B8D4; width:330px;height:230px;'><img class = 'decision-stim' src= 'images/81.png'></img></div><div class = decision-right style='background:#F1B8D4; width:330px;height:230px;'><img class = 'decision-stim' src= 'images/82.png'></img></div>",
            "trial_count": 7,
            "internal_chunk_id": "0-0.2-7.0-7",
            "time_elapsed": 72512,
            "key_press": 37,
            "type": "decision_first",
            "trial_index": 0,
            "trial_index_global": 42
        },
        {
            "rt": -1,
            "trial_type": "single-stim",
            "stimulus": "<div class = 'selected decision-left' style='background:#F1B8D4; width:330px;height:230px;'><img class = 'decision-stim' src= 'images/81.png'></div><div class = 'decision-right fade' style='background:#F1B8D4; width:330px;height:230px;'><img class = 'decision-stim  fade' src= 'images/82.png'></div>",
            "internal_chunk_id": "0-0.2-7.0-7",
            "time_elapsed": 73515,
            "key_press": -1,
            "trial_index": 0,
            "trial_index_global": 43
        },
        {
            "rt": 683,
            "trial_type": "single-stim",
            "stimulus": "<div class = 'decision-top-background faded' style='background:#F1B8D4; width:330px;height:230px;'><img class = 'decision-stim' src= 'images/81.png'></div><div class = decision-left style='background:#E0C2FF; width:330px;height:230px;'><img class = 'decision-stim' src= 'images/84.png'></img></div><div class = decision-right style='background:#E0C2FF; width:330px;height:230px;'><img class = 'decision-stim' src= 'images/83.png'></img></div>",
            "trial_count": 7,
            "internal_chunk_id": "0-0.2-7",
            "time_elapsed": 74352,
            "key_press": 39,
            "type": "decision_second",
            "trial_index": 0,
            "trial_index_global": 44
        },
        {
            "rt": -1,
            "trial_type": "single-stim",
            "stimulus": "<div class = 'decision-right selected' style='background:#E0C2FF; width:330px;height:230px;'><img class = 'decision-stim' src= 'images/83.png'></div><div class = 'fade decision-left' style='background:#E0C2FF; width:330px;height:230px;'><img class = 'decision-stim' src= 'images/84.png'></div>",
            "internal_chunk_id": "0-0.2-7.2-7",
            "time_elapsed": 75355,
            "key_press": -1,
            "trial_index": 0,
            "trial_index_global": 45
        },
        {
            "rt": -1,
            "trial_type": "single-stim",
            "stimulus": "<div class = 'decision-top-background faded' style='background:#E0C2FF; width:330px;height:230px;'><img class = 'decision-stim' src= 'images/83.png'></div><div style = text-align:center><p class = decision-fb style = 'color:red;font-size:60px'>0</p></div>",
            "trial_count": 7,
            "internal_chunk_id": "0-0.2-7.2-7",
            "time_elapsed": 75857,
            "key_press": -1,
            "type": "decision_FB",
            "trial_index": 0,
            "trial_index_global": 46
        },
        {
            "rt": -1,
            "trial_type": "single-stim",
            "stimulus": "",
            "internal_chunk_id": "0-0.2-7.2-7",
            "time_elapsed": 76859,
            "key_press": -1,
            "trial_index": 0,
            "trial_index_global": 47
        },
        {
            "rt": 594,
            "trial_type": "single-stim",
            "stimulus": "<div class = decision-left style='background:#F1B8D4; width:330px;height:230px;'><img class = 'decision-stim' src= 'images/81.png'></img></div><div class = decision-right style='background:#F1B8D4; width:330px;height:230px;'><img class = 'decision-stim' src= 'images/82.png'></img></div>",
            "trial_count": 8,
            "internal_chunk_id": "0-0.2-8.0-8",
            "time_elapsed": 77648,
            "key_press": 37,
            "type": "decision_first",
            "trial_index": 0,
            "trial_index_global": 48
        },
        {
            "rt": -1,
            "trial_type": "single-stim",
            "stimulus": "<div class = 'selected decision-left' style='background:#F1B8D4; width:330px;height:230px;'><img class = 'decision-stim' src= 'images/81.png'></div><div class = 'decision-right fade' style='background:#F1B8D4; width:330px;height:230px;'><img class = 'decision-stim  fade' src= 'images/82.png'></div>",
            "internal_chunk_id": "0-0.2-8.0-8",
            "time_elapsed": 78651,
            "key_press": -1,
            "trial_index": 0,
            "trial_index_global": 49
        },
        {
            "rt": 987,
            "trial_type": "single-stim",
            "stimulus": "<div class = 'decision-top-background faded' style='background:#F1B8D4; width:330px;height:230px;'><img class = 'decision-stim' src= 'images/81.png'></div><div class = decision-left style='background:#CCFF99; width:330px;height:230px;'><img class = 'decision-stim' src= 'images/85.png'></img></div><div class = decision-right style='background:#CCFF99; width:330px;height:230px;'><img class = 'decision-stim' src= 'images/80.png'></img></div>",
            "trial_count": 8,
            "internal_chunk_id": "0-0.2-8",
            "time_elapsed": 79840,
            "key_press": 37,
            "type": "decision_second",
            "trial_index": 0,
            "trial_index_global": 50
        },
        {
            "rt": -1,
            "trial_type": "single-stim",
            "stimulus": "<div class = 'decision-left selected' style='background:#CCFF99; width:330px;height:230px;'><img class = 'decision-stim' src= 'images/85.png'></div><div class = 'fade decision-right' style='background:#CCFF99; width:330px;height:230px;'><img class = 'decision-stim' src= 'images/80.png'></div>",
            "internal_chunk_id": "0-0.2-8.2-8",
            "time_elapsed": 80843,
            "key_press": -1,
            "trial_index": 0,
            "trial_index_global": 51
        },
        {
            "rt": -1,
            "trial_type": "single-stim",
            "stimulus": "<div class = 'decision-top-background faded' style='background:#CCFF99; width:330px;height:230px;'><img class = 'decision-stim' src= 'images/85.png'></div><div><img  class = decision-fb src = 'images/gold_coin.png'></img></div>",
            "trial_count": 8,
            "internal_chunk_id": "0-0.2-8.2-8",
            "time_elapsed": 81344,
            "key_press": -1,
            "type": "decision_FB",
            "trial_index": 0,
            "trial_index_global": 52
        },
        {
            "rt": -1,
            "trial_type": "single-stim",
            "stimulus": "",
            "internal_chunk_id": "0-0.2-8.2-8",
            "time_elapsed": 82345,
            "key_press": -1,
            "trial_index": 0,
            "trial_index_global": 53
        },
        {
            "rt": 653,
            "trial_type": "single-stim",
            "stimulus": "<div class = decision-left style='background:#F1B8D4; width:330px;height:230px;'><img class = 'decision-stim' src= 'images/82.png'></img></div><div class = decision-right style='background:#F1B8D4; width:330px;height:230px;'><img class = 'decision-stim' src= 'images/81.png'></img></div>",
            "trial_count": 9,
            "internal_chunk_id": "0-0.2-9.0-9",
            "time_elapsed": 83152,
            "key_press": 39,
            "type": "decision_first",
            "trial_index": 0,
            "trial_index_global": 54
        },
        {
            "rt": -1,
            "trial_type": "single-stim",
            "stimulus": "<div class = 'selected decision-right' style='background:#F1B8D4; width:330px;height:230px;'><img class = 'decision-stim' src= 'images/81.png'></div><div class = 'decision-left fade' style='background:#F1B8D4; width:330px;height:230px;'><img class = 'decision-stim  fade' src= 'images/82.png'></div>",
            "internal_chunk_id": "0-0.2-9.0-9",
            "time_elapsed": 84154,
            "key_press": -1,
            "trial_index": 0,
            "trial_index_global": 55
        },
        {
            "rt": 596,
            "trial_type": "single-stim",
            "stimulus": "<div class = 'decision-top-background faded' style='background:#F1B8D4; width:330px;height:230px;'><img class = 'decision-stim' src= 'images/81.png'></div><div class = decision-left style='background:#CCFF99; width:330px;height:230px;'><img class = 'decision-stim' src= 'images/85.png'></img></div><div class = decision-right style='background:#CCFF99; width:330px;height:230px;'><img class = 'decision-stim' src= 'images/80.png'></img></div>",
            "trial_count": 9,
            "internal_chunk_id": "0-0.2-9",
            "time_elapsed": 84912,
            "key_press": 37,
            "type": "decision_second",
            "trial_index": 0,
            "trial_index_global": 56
        },
        {
            "rt": -1,
            "trial_type": "single-stim",
            "stimulus": "<div class = 'decision-left selected' style='background:#CCFF99; width:330px;height:230px;'><img class = 'decision-stim' src= 'images/85.png'></div><div class = 'fade decision-right' style='background:#CCFF99; width:330px;height:230px;'><img class = 'decision-stim' src= 'images/80.png'></div>",
            "internal_chunk_id": "0-0.2-9.2-9",
            "time_elapsed": 85915,
            "key_press": -1,
            "trial_index": 0,
            "trial_index_global": 57
        },
        {
            "rt": -1,
            "trial_type": "single-stim",
            "stimulus": "<div class = 'decision-top-background faded' style='background:#CCFF99; width:330px;height:230px;'><img class = 'decision-stim' src= 'images/85.png'></div><div style = text-align:center><p class = decision-fb style = 'color:red;font-size:60px'>0</p></div>",
            "trial_count": 9,
            "internal_chunk_id": "0-0.2-9.2-9",
            "time_elapsed": 86417,
            "key_press": -1,
            "type": "decision_FB",
            "trial_index": 0,
            "trial_index_global": 58
        },
        {
            "rt": -1,
            "trial_type": "single-stim",
            "stimulus": "",
            "internal_chunk_id": "0-0.2-9.2-9",
            "time_elapsed": 87418,
            "key_press": -1,
            "trial_index": 0,
            "trial_index_global": 59
        },
        {
            "rt": 20379,
            "trial_type": "text",
            "internal_chunk_id": "0-0",
            "time_elapsed": 107905,
            "key_press": 13,
            "trial_index": 0,
            "trial_index_global": 60
        },
        {
            "rt": -1,
            "trial_type": "single-stim",
            "stimulus": "",
            "internal_chunk_id": "0-0",
            "time_elapsed": 108910,
            "key_press": -1,
            "global_params": {
                "second_stage_stim": {
                    "stimulus": [
                        "<div class = decision-left style='background:#C2C2FF; width:330px;height:230px;'><img class = 'decision-stim' src= 'images/16.png'></img></div><div class = decision-right style='background:#C2C2FF; width:330px;height:230px;'><img class = 'decision-stim' src= 'images/13.png'></img></div>",
                        "<div class = decision-left style='background:#C2C2FF; width:330px;height:230px;'><img class = 'decision-stim' src= 'images/13.png'></img></div><div class = decision-right style='background:#C2C2FF; width:330px;height:230px;'><img class = 'decision-stim' src= 'images/16.png'></img></div>",
                        "<div class = decision-left style='background:#98bf21; width:330px;height:230px;'><img class = 'decision-stim' src= 'images/15.png'></img></div><div class = decision-right style='background:#98bf21; width:330px;height:230px;'><img class = 'decision-stim' src= 'images/11.png'></img></div>",
                        "<div class = decision-left style='background:#98bf21; width:330px;height:230px;'><img class = 'decision-stim' src= 'images/11.png'></img></div><div class = decision-right style='background:#98bf21; width:330px;height:230px;'><img class = 'decision-stim' src= 'images/15.png'></img></div>"
                    ],
                    "id": [
                        [
                            2,
                            3
                        ],
                        [
                            3,
                            2
                        ],
                        [
                            4,
                            5
                        ],
                        [
                            5,
                            4
                        ]
                    ]
                },
                "stims": [
                    "images/12.png",
                    "images/14.png",
                    "images/16.png",
                    "images/13.png",
                    "images/15.png",
                    "images/11.png"
                ],
                "fs_stim": [
                    {
                        "stimulus": "<div class = decision-left style='background:#FF9966; width:330px;height:230px;'><img class = 'decision-stim' src= 'images/12.png'></img></div><div class = decision-right style='background:#FF9966; width:330px;height:230px;'><img class = 'decision-stim' src= 'images/14.png'></img></div>",
                        "id": [
                            0,
                            1
                        ]
                    },
                    {
                        "stimulus": "<div class = decision-left style='background:#FF9966; width:330px;height:230px;'><img class = 'decision-stim' src= 'images/14.png'></img></div><div class = decision-right style='background:#FF9966; width:330px;height:230px;'><img class = 'decision-stim' src= 'images/12.png'></img></div>",
                        "id": [
                            1,
                            0
                        ]
                    }
                ],
                "condition": "test",
                "actions": [
                    37,
                    39
                ]
            },
            "type": "decision_global",
            "trial_index": 0,
            "trial_index_global": 61
        },
        {
            "rt": 994,
            "trial_type": "single-stim",
            "stimulus": "<div class = decision-left style='background:#FF9966; width:330px;height:230px;'><img class = 'decision-stim' src= 'images/12.png'></img></div><div class = decision-right style='background:#FF9966; width:330px;height:230px;'><img class = 'decision-stim' src= 'images/14.png'></img></div>",
            "trial_count": 0,
            "internal_chunk_id": "0-0.5-0.0-0",
            "time_elapsed": 110001,
            "key_press": 39,
            "type": "decision_first",
            "trial_index": 0,
            "trial_index_global": 62
        },
        {
            "rt": -1,
            "trial_type": "single-stim",
            "stimulus": "<div class = 'selected decision-right' style='background:#FF9966; width:330px;height:230px;'><img class = 'decision-stim' src= 'images/14.png'></div><div class = 'decision-left fade' style='background:#FF9966; width:330px;height:230px;'><img class = 'decision-stim  fade' src= 'images/12.png'></div>",
            "internal_chunk_id": "0-0.5-0.0-0",
            "time_elapsed": 111005,
            "key_press": -1,
            "trial_index": 0,
            "trial_index_global": 63
        },
        {
            "rt": 753,
            "trial_type": "single-stim",
            "stimulus": "<div class = 'decision-top-background faded' style='background:#FF9966; width:330px;height:230px;'><img class = 'decision-stim' src= 'images/14.png'></div><div class = decision-left style='background:#C2C2FF; width:330px;height:230px;'><img class = 'decision-stim' src= 'images/13.png'></img></div><div class = decision-right style='background:#C2C2FF; width:330px;height:230px;'><img class = 'decision-stim' src= 'images/16.png'></img></div>",
            "trial_count": 0,
            "internal_chunk_id": "0-0.5-0",
            "time_elapsed": 111888,
            "key_press": 39,
            "type": "decision_second",
            "trial_index": 0,
            "trial_index_global": 64
        },
        {
            "rt": -1,
            "trial_type": "single-stim",
            "stimulus": "<div class = 'decision-right selected' style='background:#C2C2FF; width:330px;height:230px;'><img class = 'decision-stim' src= 'images/16.png'></div><div class = 'fade decision-left' style='background:#C2C2FF; width:330px;height:230px;'><img class = 'decision-stim' src= 'images/13.png'></div>",
            "internal_chunk_id": "0-0.5-0.2-0",
            "time_elapsed": 112891,
            "key_press": -1,
            "trial_index": 0,
            "trial_index_global": 65
        },
        {
            "rt": -1,
            "trial_type": "single-stim",
            "stimulus": "<div class = 'decision-top-background faded' style='background:#C2C2FF; width:330px;height:230px;'><img class = 'decision-stim' src= 'images/16.png'></div><div style = text-align:center><p class = decision-fb style = 'color:red;font-size:60px'>0</p></div>",
            "trial_count": 0,
            "internal_chunk_id": "0-0.5-0.2-0",
            "time_elapsed": 113394,
            "key_press": -1,
            "type": "decision_FB",
            "trial_index": 0,
            "trial_index_global": 66
        },
        {
            "rt": -1,
            "trial_type": "single-stim",
            "stimulus": "",
            "internal_chunk_id": "0-0.5-0.2-0",
            "time_elapsed": 114394,
            "key_press": -1,
            "trial_index": 0,
            "trial_index_global": 67
        },
        {
            "rt": 549,
            "trial_type": "single-stim",
            "stimulus": "<div class = decision-left style='background:#FF9966; width:330px;height:230px;'><img class = 'decision-stim' src= 'images/12.png'></img></div><div class = decision-right style='background:#FF9966; width:330px;height:230px;'><img class = 'decision-stim' src= 'images/14.png'></img></div>",
            "trial_count": 1,
            "internal_chunk_id": "0-0.5-1.0-1",
            "time_elapsed": 115089,
            "key_press": 39,
            "type": "decision_first",
            "trial_index": 0,
            "trial_index_global": 68
        },
        {
            "rt": -1,
            "trial_type": "single-stim",
            "stimulus": "<div class = 'selected decision-right' style='background:#FF9966; width:330px;height:230px;'><img class = 'decision-stim' src= 'images/14.png'></div><div class = 'decision-left fade' style='background:#FF9966; width:330px;height:230px;'><img class = 'decision-stim  fade' src= 'images/12.png'></div>",
            "internal_chunk_id": "0-0.5-1.0-1",
            "time_elapsed": 116093,
            "key_press": -1,
            "trial_index": 0,
            "trial_index_global": 69
        },
        {
            "rt": 873,
            "trial_type": "single-stim",
            "stimulus": "<div class = 'decision-top-background faded' style='background:#FF9966; width:330px;height:230px;'><img class = 'decision-stim' src= 'images/14.png'></div><div class = decision-left style='background:#98bf21; width:330px;height:230px;'><img class = 'decision-stim' src= 'images/11.png'></img></div><div class = decision-right style='background:#98bf21; width:330px;height:230px;'><img class = 'decision-stim' src= 'images/15.png'></img></div>",
            "trial_count": 1,
            "internal_chunk_id": "0-0.5-1",
            "time_elapsed": 117129,
            "key_press": 39,
            "type": "decision_second",
            "trial_index": 0,
            "trial_index_global": 70
        },
        {
            "rt": -1,
            "trial_type": "single-stim",
            "stimulus": "<div class = 'decision-right selected' style='background:#98bf21; width:330px;height:230px;'><img class = 'decision-stim' src= 'images/15.png'></div><div class = 'fade decision-left' style='background:#98bf21; width:330px;height:230px;'><img class = 'decision-stim' src= 'images/11.png'></div>",
            "internal_chunk_id": "0-0.5-1.2-1",
            "time_elapsed": 118133,
            "key_press": -1,
            "trial_index": 0,
            "trial_index_global": 71
        },
        {
            "rt": -1,
            "trial_type": "single-stim",
            "stimulus": "<div class = 'decision-top-background faded' style='background:#98bf21; width:330px;height:230px;'><img class = 'decision-stim' src= 'images/15.png'></div><div style = text-align:center><p class = decision-fb style = 'color:red;font-size:60px'>0</p></div>",
            "trial_count": 1,
            "internal_chunk_id": "0-0.5-1.2-1",
            "time_elapsed": 118635,
            "key_press": -1,
            "type": "decision_FB",
            "trial_index": 0,
            "trial_index_global": 72
        },
        {
            "rt": -1,
            "trial_type": "single-stim",
            "stimulus": "",
            "internal_chunk_id": "0-0.5-1.2-1",
            "time_elapsed": 119636,
            "key_press": -1,
            "trial_index": 0,
            "trial_index_global": 73
        },
        {
            "rt": 930,
            "trial_type": "single-stim",
            "stimulus": "<div class = decision-left style='background:#FF9966; width:330px;height:230px;'><img class = 'decision-stim' src= 'images/14.png'></img></div><div class = decision-right style='background:#FF9966; width:330px;height:230px;'><img class = 'decision-stim' src= 'images/12.png'></img></div>",
            "trial_count": 2,
            "internal_chunk_id": "0-0.5-2.0-2",
            "time_elapsed": 120745,
            "key_press": 39,
            "type": "decision_first",
            "trial_index": 0,
            "trial_index_global": 74
        },
        {
            "rt": -1,
            "trial_type": "single-stim",
            "stimulus": "<div class = 'selected decision-right' style='background:#FF9966; width:330px;height:230px;'><img class = 'decision-stim' src= 'images/12.png'></div><div class = 'decision-left fade' style='background:#FF9966; width:330px;height:230px;'><img class = 'decision-stim  fade' src= 'images/14.png'></div>",
            "internal_chunk_id": "0-0.5-2.0-2",
            "time_elapsed": 121749,
            "key_press": -1,
            "trial_index": 0,
            "trial_index_global": 75
        },
        {
            "rt": 761,
            "trial_type": "single-stim",
            "stimulus": "<div class = 'decision-top-background faded' style='background:#FF9966; width:330px;height:230px;'><img class = 'decision-stim' src= 'images/12.png'></div><div class = decision-left style='background:#C2C2FF; width:330px;height:230px;'><img class = 'decision-stim' src= 'images/13.png'></img></div><div class = decision-right style='background:#C2C2FF; width:330px;height:230px;'><img class = 'decision-stim' src= 'images/16.png'></img></div>",
            "trial_count": 2,
            "internal_chunk_id": "0-0.5-2",
            "time_elapsed": 122689,
            "key_press": 39,
            "type": "decision_second",
            "trial_index": 0,
            "trial_index_global": 76
        },
        {
            "rt": -1,
            "trial_type": "single-stim",
            "stimulus": "<div class = 'decision-right selected' style='background:#C2C2FF; width:330px;height:230px;'><img class = 'decision-stim' src= 'images/16.png'></div><div class = 'fade decision-left' style='background:#C2C2FF; width:330px;height:230px;'><img class = 'decision-stim' src= 'images/13.png'></div>",
            "internal_chunk_id": "0-0.5-2.2-2",
            "time_elapsed": 123692,
            "key_press": -1,
            "trial_index": 0,
            "trial_index_global": 77
        },
        {
            "rt": -1,
            "trial_type": "single-stim",
            "stimulus": "<div class = 'decision-top-background faded' style='background:#C2C2FF; width:330px;height:230px;'><img class = 'decision-stim' src= 'images/16.png'></div><div style = text-align:center><p class = decision-fb style = 'color:red;font-size:60px'>0</p></div>",
            "trial_count": 2,
            "internal_chunk_id": "0-0.5-2.2-2",
            "time_elapsed": 124193,
            "key_press": -1,
            "type": "decision_FB",
            "trial_index": 0,
            "trial_index_global": 78
        },
        {
            "rt": -1,
            "trial_type": "single-stim",
            "stimulus": "",
            "internal_chunk_id": "0-0.5-2.2-2",
            "time_elapsed": 125193,
            "key_press": -1,
            "trial_index": 0,
            "trial_index_global": 79
        },
        {
            "rt": 1069,
            "trial_type": "single-stim",
            "stimulus": "<div class = decision-left style='background:#FF9966; width:330px;height:230px;'><img class = 'decision-stim' src= 'images/14.png'></img></div><div class = decision-right style='background:#FF9966; width:330px;height:230px;'><img class = 'decision-stim' src= 'images/12.png'></img></div>",
            "trial_count": 3,
            "internal_chunk_id": "0-0.5-3.0-3",
            "time_elapsed": 126441,
            "key_press": 39,
            "type": "decision_first",
            "trial_index": 0,
            "trial_index_global": 80
        },
        {
            "rt": -1,
            "trial_type": "single-stim",
            "stimulus": "<div class = 'selected decision-right' style='background:#FF9966; width:330px;height:230px;'><img class = 'decision-stim' src= 'images/12.png'></div><div class = 'decision-left fade' style='background:#FF9966; width:330px;height:230px;'><img class = 'decision-stim  fade' src= 'images/14.png'></div>",
            "internal_chunk_id": "0-0.5-3.0-3",
            "time_elapsed": 127443,
            "key_press": -1,
            "trial_index": 0,
            "trial_index_global": 81
        },
        {
            "rt": 898,
            "trial_type": "single-stim",
            "stimulus": "<div class = 'decision-top-background faded' style='background:#FF9966; width:330px;height:230px;'><img class = 'decision-stim' src= 'images/12.png'></div><div class = decision-left style='background:#98bf21; width:330px;height:230px;'><img class = 'decision-stim' src= 'images/11.png'></img></div><div class = decision-right style='background:#98bf21; width:330px;height:230px;'><img class = 'decision-stim' src= 'images/15.png'></img></div>",
            "trial_count": 3,
            "internal_chunk_id": "0-0.5-3",
            "time_elapsed": 128496,
            "key_press": 37,
            "type": "decision_second",
            "trial_index": 0,
            "trial_index_global": 82
        },
        {
            "rt": -1,
            "trial_type": "single-stim",
            "stimulus": "<div class = 'decision-left selected' style='background:#98bf21; width:330px;height:230px;'><img class = 'decision-stim' src= 'images/11.png'></div><div class = 'fade decision-right' style='background:#98bf21; width:330px;height:230px;'><img class = 'decision-stim' src= 'images/15.png'></div>",
            "internal_chunk_id": "0-0.5-3.2-3",
            "time_elapsed": 129500,
            "key_press": -1,
            "trial_index": 0,
            "trial_index_global": 83
        },
        {
            "rt": -1,
            "trial_type": "single-stim",
            "stimulus": "<div class = 'decision-top-background faded' style='background:#98bf21; width:330px;height:230px;'><img class = 'decision-stim' src= 'images/11.png'></div><div><img  class = decision-fb src = 'images/gold_coin.png'></img></div>",
            "trial_count": 3,
            "internal_chunk_id": "0-0.5-3.2-3",
            "time_elapsed": 130001,
            "key_press": -1,
            "type": "decision_FB",
            "trial_index": 0,
            "trial_index_global": 84
        },
        {
            "rt": -1,
            "trial_type": "single-stim",
            "stimulus": "",
            "internal_chunk_id": "0-0.5-3.2-3",
            "time_elapsed": 131002,
            "key_press": -1,
            "trial_index": 0,
            "trial_index_global": 85
        },
        {
            "rt": 748,
            "trial_type": "single-stim",
            "stimulus": "<div class = decision-left style='background:#FF9966; width:330px;height:230px;'><img class = 'decision-stim' src= 'images/14.png'></img></div><div class = decision-right style='background:#FF9966; width:330px;height:230px;'><img class = 'decision-stim' src= 'images/12.png'></img></div>",
            "trial_count": 4,
            "internal_chunk_id": "0-0.5-4.0-4",
            "time_elapsed": 131897,
            "key_press": 39,
            "type": "decision_first",
            "trial_index": 0,
            "trial_index_global": 86
        },
        {
            "rt": -1,
            "trial_type": "single-stim",
            "stimulus": "<div class = 'selected decision-right' style='background:#FF9966; width:330px;height:230px;'><img class = 'decision-stim' src= 'images/12.png'></div><div class = 'decision-left fade' style='background:#FF9966; width:330px;height:230px;'><img class = 'decision-stim  fade' src= 'images/14.png'></div>",
            "internal_chunk_id": "0-0.5-4.0-4",
            "time_elapsed": 132900,
            "key_press": -1,
            "trial_index": 0,
            "trial_index_global": 87
        },
        {
            "rt": 538,
            "trial_type": "single-stim",
            "stimulus": "<div class = 'decision-top-background faded' style='background:#FF9966; width:330px;height:230px;'><img class = 'decision-stim' src= 'images/12.png'></div><div class = decision-left style='background:#98bf21; width:330px;height:230px;'><img class = 'decision-stim' src= 'images/11.png'></img></div><div class = decision-right style='background:#98bf21; width:330px;height:230px;'><img class = 'decision-stim' src= 'images/15.png'></img></div>",
            "trial_count": 4,
            "internal_chunk_id": "0-0.5-4",
            "time_elapsed": 133593,
            "key_press": 37,
            "type": "decision_second",
            "trial_index": 0,
            "trial_index_global": 88
        },
        {
            "rt": -1,
            "trial_type": "single-stim",
            "stimulus": "<div class = 'decision-left selected' style='background:#98bf21; width:330px;height:230px;'><img class = 'decision-stim' src= 'images/11.png'></div><div class = 'fade decision-right' style='background:#98bf21; width:330px;height:230px;'><img class = 'decision-stim' src= 'images/15.png'></div>",
            "internal_chunk_id": "0-0.5-4.2-4",
            "time_elapsed": 134597,
            "key_press": -1,
            "trial_index": 0,
            "trial_index_global": 89
        },
        {
            "rt": -1,
            "trial_type": "single-stim",
            "stimulus": "<div class = 'decision-top-background faded' style='background:#98bf21; width:330px;height:230px;'><img class = 'decision-stim' src= 'images/11.png'></div><div style = text-align:center><p class = decision-fb style = 'color:red;font-size:60px'>0</p></div>",
            "trial_count": 4,
            "internal_chunk_id": "0-0.5-4.2-4",
            "time_elapsed": 135099,
            "key_press": -1,
            "type": "decision_FB",
            "trial_index": 0,
            "trial_index_global": 90
        },
        {
            "rt": -1,
            "trial_type": "single-stim",
            "stimulus": "",
            "internal_chunk_id": "0-0.5-4.2-4",
            "time_elapsed": 136100,
            "key_press": -1,
            "trial_index": 0,
            "trial_index_global": 91
        },
        {
            "rt": 794,
            "trial_type": "single-stim",
            "stimulus": "<div class = decision-left style='background:#FF9966; width:330px;height:230px;'><img class = 'decision-stim' src= 'images/12.png'></img></div><div class = decision-right style='background:#FF9966; width:330px;height:230px;'><img class = 'decision-stim' src= 'images/14.png'></img></div>",
            "trial_count": 5,
            "internal_chunk_id": "0-0.5-5.0-5",
            "time_elapsed": 137089,
            "key_press": 37,
            "type": "decision_first",
            "trial_index": 0,
            "trial_index_global": 92
        },
        {
            "rt": -1,
            "trial_type": "single-stim",
            "stimulus": "<div class = 'selected decision-left' style='background:#FF9966; width:330px;height:230px;'><img class = 'decision-stim' src= 'images/12.png'></div><div class = 'decision-right fade' style='background:#FF9966; width:330px;height:230px;'><img class = 'decision-stim  fade' src= 'images/14.png'></div>",
            "internal_chunk_id": "0-0.5-5.0-5",
            "time_elapsed": 138093,
            "key_press": -1,
            "trial_index": 0,
            "trial_index_global": 93
        },
        {
            "rt": 1177,
            "trial_type": "single-stim",
            "stimulus": "<div class = 'decision-top-background faded' style='background:#FF9966; width:330px;height:230px;'><img class = 'decision-stim' src= 'images/12.png'></div><div class = decision-left style='background:#C2C2FF; width:330px;height:230px;'><img class = 'decision-stim' src= 'images/16.png'></img></div><div class = decision-right style='background:#C2C2FF; width:330px;height:230px;'><img class = 'decision-stim' src= 'images/13.png'></img></div>",
            "trial_count": 5,
            "internal_chunk_id": "0-0.5-5",
            "time_elapsed": 139433,
            "key_press": 37,
            "type": "decision_second",
            "trial_index": 0,
            "trial_index_global": 94
        },
        {
            "rt": -1,
            "trial_type": "single-stim",
            "stimulus": "<div class = 'decision-left selected' style='background:#C2C2FF; width:330px;height:230px;'><img class = 'decision-stim' src= 'images/16.png'></div><div class = 'fade decision-right' style='background:#C2C2FF; width:330px;height:230px;'><img class = 'decision-stim' src= 'images/13.png'></div>",
            "internal_chunk_id": "0-0.5-5.2-5",
            "time_elapsed": 140437,
            "key_press": -1,
            "trial_index": 0,
            "trial_index_global": 95
        },
        {
            "rt": -1,
            "trial_type": "single-stim",
            "stimulus": "<div class = 'decision-top-background faded' style='background:#C2C2FF; width:330px;height:230px;'><img class = 'decision-stim' src= 'images/16.png'></div><div><img  class = decision-fb src = 'images/gold_coin.png'></img></div>",
            "trial_count": 5,
            "internal_chunk_id": "0-0.5-5.2-5",
            "time_elapsed": 140938,
            "key_press": -1,
            "type": "decision_FB",
            "trial_index": 0,
            "trial_index_global": 96
        },
        {
            "rt": -1,
            "trial_type": "single-stim",
            "stimulus": "",
            "internal_chunk_id": "0-0.5-5.2-5",
            "time_elapsed": 141940,
            "key_press": -1,
            "trial_index": 0,
            "trial_index_global": 97
        },
        {
            "rt": 793,
            "trial_type": "single-stim",
            "stimulus": "<div class = decision-left style='background:#FF9966; width:330px;height:230px;'><img class = 'decision-stim' src= 'images/12.png'></img></div><div class = decision-right style='background:#FF9966; width:330px;height:230px;'><img class = 'decision-stim' src= 'images/14.png'></img></div>",
            "trial_count": 6,
            "internal_chunk_id": "0-0.5-6.0-6",
            "time_elapsed": 142873,
            "key_press": 37,
            "type": "decision_first",
            "trial_index": 0,
            "trial_index_global": 98
        },
        {
            "rt": -1,
            "trial_type": "single-stim",
            "stimulus": "<div class = 'selected decision-left' style='background:#FF9966; width:330px;height:230px;'><img class = 'decision-stim' src= 'images/12.png'></div><div class = 'decision-right fade' style='background:#FF9966; width:330px;height:230px;'><img class = 'decision-stim  fade' src= 'images/14.png'></div>",
            "internal_chunk_id": "0-0.5-6.0-6",
            "time_elapsed": 143877,
            "key_press": -1,
            "trial_index": 0,
            "trial_index_global": 99
        },
        {
            "rt": 447,
            "trial_type": "single-stim",
            "stimulus": "<div class = 'decision-top-background faded' style='background:#FF9966; width:330px;height:230px;'><img class = 'decision-stim' src= 'images/12.png'></div><div class = decision-left style='background:#C2C2FF; width:330px;height:230px;'><img class = 'decision-stim' src= 'images/16.png'></img></div><div class = decision-right style='background:#C2C2FF; width:330px;height:230px;'><img class = 'decision-stim' src= 'images/13.png'></img></div>",
            "trial_count": 6,
            "internal_chunk_id": "0-0.5-6",
            "time_elapsed": 144441,
            "key_press": 37,
            "type": "decision_second",
            "trial_index": 0,
            "trial_index_global": 100
        },
        {
            "rt": -1,
            "trial_type": "single-stim",
            "stimulus": "<div class = 'decision-left selected' style='background:#C2C2FF; width:330px;height:230px;'><img class = 'decision-stim' src= 'images/16.png'></div><div class = 'fade decision-right' style='background:#C2C2FF; width:330px;height:230px;'><img class = 'decision-stim' src= 'images/13.png'></div>",
            "internal_chunk_id": "0-0.5-6.2-6",
            "time_elapsed": 145445,
            "key_press": -1,
            "trial_index": 0,
            "trial_index_global": 101
        },
        {
            "rt": -1,
            "trial_type": "single-stim",
            "stimulus": "<div class = 'decision-top-background faded' style='background:#C2C2FF; width:330px;height:230px;'><img class = 'decision-stim' src= 'images/16.png'></div><div><img  class = decision-fb src = 'images/gold_coin.png'></img></div>",
            "trial_count": 6,
            "internal_chunk_id": "0-0.5-6.2-6",
            "time_elapsed": 145947,
            "key_press": -1,
            "type": "decision_FB",
            "trial_index": 0,
            "trial_index_global": 102
        },
        {
            "rt": -1,
            "trial_type": "single-stim",
            "stimulus": "",
            "internal_chunk_id": "0-0.5-6.2-6",
            "time_elapsed": 146947,
            "key_press": -1,
            "trial_index": 0,
            "trial_index_global": 103
        },
        {
            "rt": 627,
            "trial_type": "single-stim",
            "stimulus": "<div class = decision-left style='background:#FF9966; width:330px;height:230px;'><img class = 'decision-stim' src= 'images/14.png'></img></div><div class = decision-right style='background:#FF9966; width:330px;height:230px;'><img class = 'decision-stim' src= 'images/12.png'></img></div>",
            "trial_count": 7,
            "internal_chunk_id": "0-0.5-7.0-7",
            "time_elapsed": 147761,
            "key_press": 39,
            "type": "decision_first",
            "trial_index": 0,
            "trial_index_global": 104
        },
        {
            "rt": -1,
            "trial_type": "single-stim",
            "stimulus": "<div class = 'selected decision-right' style='background:#FF9966; width:330px;height:230px;'><img class = 'decision-stim' src= 'images/12.png'></div><div class = 'decision-left fade' style='background:#FF9966; width:330px;height:230px;'><img class = 'decision-stim  fade' src= 'images/14.png'></div>",
            "internal_chunk_id": "0-0.5-7.0-7",
            "time_elapsed": 148764,
            "key_press": -1,
            "trial_index": 0,
            "trial_index_global": 105
        },
        {
            "rt": 666,
            "trial_type": "single-stim",
            "stimulus": "<div class = 'decision-top-background faded' style='background:#FF9966; width:330px;height:230px;'><img class = 'decision-stim' src= 'images/12.png'></div><div class = decision-left style='background:#C2C2FF; width:330px;height:230px;'><img class = 'decision-stim' src= 'images/13.png'></img></div><div class = decision-right style='background:#C2C2FF; width:330px;height:230px;'><img class = 'decision-stim' src= 'images/16.png'></img></div>",
            "trial_count": 7,
            "internal_chunk_id": "0-0.5-7",
            "time_elapsed": 149617,
            "key_press": 39,
            "type": "decision_second",
            "trial_index": 0,
            "trial_index_global": 106
        },
        {
            "rt": -1,
            "trial_type": "single-stim",
            "stimulus": "<div class = 'decision-right selected' style='background:#C2C2FF; width:330px;height:230px;'><img class = 'decision-stim' src= 'images/16.png'></div><div class = 'fade decision-left' style='background:#C2C2FF; width:330px;height:230px;'><img class = 'decision-stim' src= 'images/13.png'></div>",
            "internal_chunk_id": "0-0.5-7.2-7",
            "time_elapsed": 150623,
            "key_press": -1,
            "trial_index": 0,
            "trial_index_global": 107
        },
        {
            "rt": -1,
            "trial_type": "single-stim",
            "stimulus": "<div class = 'decision-top-background faded' style='background:#C2C2FF; width:330px;height:230px;'><img class = 'decision-stim' src= 'images/16.png'></div><div><img  class = decision-fb src = 'images/gold_coin.png'></img></div>",
            "trial_count": 7,
            "internal_chunk_id": "0-0.5-7.2-7",
            "time_elapsed": 151125,
            "key_press": -1,
            "type": "decision_FB",
            "trial_index": 0,
            "trial_index_global": 108
        },
        {
            "rt": -1,
            "trial_type": "single-stim",
            "stimulus": "",
            "internal_chunk_id": "0-0.5-7.2-7",
            "time_elapsed": 152127,
            "key_press": -1,
            "trial_index": 0,
            "trial_index_global": 109
        },
        {
            "rt": 575,
            "trial_type": "single-stim",
            "stimulus": "<div class = decision-left style='background:#FF9966; width:330px;height:230px;'><img class = 'decision-stim' src= 'images/12.png'></img></div><div class = decision-right style='background:#FF9966; width:330px;height:230px;'><img class = 'decision-stim' src= 'images/14.png'></img></div>",
            "trial_count": 8,
            "internal_chunk_id": "0-0.5-8.0-8",
            "time_elapsed": 152889,
            "key_press": 37,
            "type": "decision_first",
            "trial_index": 0,
            "trial_index_global": 110
        },
        {
            "rt": -1,
            "trial_type": "single-stim",
            "stimulus": "<div class = 'selected decision-left' style='background:#FF9966; width:330px;height:230px;'><img class = 'decision-stim' src= 'images/12.png'></div><div class = 'decision-right fade' style='background:#FF9966; width:330px;height:230px;'><img class = 'decision-stim  fade' src= 'images/14.png'></div>",
            "internal_chunk_id": "0-0.5-8.0-8",
            "time_elapsed": 153893,
            "key_press": -1,
            "trial_index": 0,
            "trial_index_global": 111
        },
        {
            "rt": 697,
            "trial_type": "single-stim",
            "stimulus": "<div class = 'decision-top-background faded' style='background:#FF9966; width:330px;height:230px;'><img class = 'decision-stim' src= 'images/12.png'></div><div class = decision-left style='background:#C2C2FF; width:330px;height:230px;'><img class = 'decision-stim' src= 'images/13.png'></img></div><div class = decision-right style='background:#C2C2FF; width:330px;height:230px;'><img class = 'decision-stim' src= 'images/16.png'></img></div>",
            "trial_count": 8,
            "internal_chunk_id": "0-0.5-8",
            "time_elapsed": 154793,
            "key_press": 39,
            "type": "decision_second",
            "trial_index": 0,
            "trial_index_global": 112
        },
        {
            "rt": -1,
            "trial_type": "single-stim",
            "stimulus": "<div class = 'decision-right selected' style='background:#C2C2FF; width:330px;height:230px;'><img class = 'decision-stim' src= 'images/16.png'></div><div class = 'fade decision-left' style='background:#C2C2FF; width:330px;height:230px;'><img class = 'decision-stim' src= 'images/13.png'></div>",
            "internal_chunk_id": "0-0.5-8.2-8",
            "time_elapsed": 155796,
            "key_press": -1,
            "trial_index": 0,
            "trial_index_global": 113
        },
        {
            "rt": -1,
            "trial_type": "single-stim",
            "stimulus": "<div class = 'decision-top-background faded' style='background:#C2C2FF; width:330px;height:230px;'><img class = 'decision-stim' src= 'images/16.png'></div><div><img  class = decision-fb src = 'images/gold_coin.png'></img></div>",
            "trial_count": 8,
            "internal_chunk_id": "0-0.5-8.2-8",
            "time_elapsed": 156298,
            "key_press": -1,
            "type": "decision_FB",
            "trial_index": 0,
            "trial_index_global": 114
        },
        {
            "rt": -1,
            "trial_type": "single-stim",
            "stimulus": "",
            "internal_chunk_id": "0-0.5-8.2-8",
            "time_elapsed": 157300,
            "key_press": -1,
            "trial_index": 0,
            "trial_index_global": 115
        },
        {
            "rt": 577,
            "trial_type": "single-stim",
            "stimulus": "<div class = decision-left style='background:#FF9966; width:330px;height:230px;'><img class = 'decision-stim' src= 'images/12.png'></img></div><div class = decision-right style='background:#FF9966; width:330px;height:230px;'><img class = 'decision-stim' src= 'images/14.png'></img></div>",
            "trial_count": 9,
            "internal_chunk_id": "0-0.5-9.0-9",
            "time_elapsed": 158073,
            "key_press": 37,
            "type": "decision_first",
            "trial_index": 0,
            "trial_index_global": 116
        },
        {
            "rt": -1,
            "trial_type": "single-stim",
            "stimulus": "<div class = 'selected decision-left' style='background:#FF9966; width:330px;height:230px;'><img class = 'decision-stim' src= 'images/12.png'></div><div class = 'decision-right fade' style='background:#FF9966; width:330px;height:230px;'><img class = 'decision-stim  fade' src= 'images/14.png'></div>",
            "internal_chunk_id": "0-0.5-9.0-9",
            "time_elapsed": 159078,
            "key_press": -1,
            "trial_index": 0,
            "trial_index_global": 117
        },
        {
            "rt": 662,
            "trial_type": "single-stim",
            "stimulus": "<div class = 'decision-top-background faded' style='background:#FF9966; width:330px;height:230px;'><img class = 'decision-stim' src= 'images/12.png'></div><div class = decision-left style='background:#98bf21; width:330px;height:230px;'><img class = 'decision-stim' src= 'images/11.png'></img></div><div class = decision-right style='background:#98bf21; width:330px;height:230px;'><img class = 'decision-stim' src= 'images/15.png'></img></div>",
            "trial_count": 9,
            "internal_chunk_id": "0-0.5-9",
            "time_elapsed": 159937,
            "key_press": 37,
            "type": "decision_second",
            "trial_index": 0,
            "trial_index_global": 118
        },
        {
            "rt": -1,
            "trial_type": "single-stim",
            "stimulus": "<div class = 'decision-left selected' style='background:#98bf21; width:330px;height:230px;'><img class = 'decision-stim' src= 'images/11.png'></div><div class = 'fade decision-right' style='background:#98bf21; width:330px;height:230px;'><img class = 'decision-stim' src= 'images/15.png'></div>",
            "internal_chunk_id": "0-0.5-9.2-9",
            "time_elapsed": 160941,
            "key_press": -1,
            "trial_index": 0,
            "trial_index_global": 119
        },
        {
            "rt": -1,
            "trial_type": "single-stim",
            "stimulus": "<div class = 'decision-top-background faded' style='background:#98bf21; width:330px;height:230px;'><img class = 'decision-stim' src= 'images/11.png'></div><div style = text-align:center><p class = decision-fb style = 'color:red;font-size:60px'>0</p></div>",
            "trial_count": 9,
            "internal_chunk_id": "0-0.5-9.2-9",
            "time_elapsed": 161442,
            "key_press": -1,
            "type": "decision_FB",
            "trial_index": 0,
            "trial_index_global": 120
        },
        {
            "rt": -1,
            "trial_type": "single-stim",
            "stimulus": "",
            "internal_chunk_id": "0-0.5-9.2-9",
            "time_elapsed": 162443,
            "key_press": -1,
            "trial_index": 0,
            "trial_index_global": 121
        },
        {
            "rt": 554,
            "trial_type": "single-stim",
            "stimulus": "<div class = decision-left style='background:#FF9966; width:330px;height:230px;'><img class = 'decision-stim' src= 'images/14.png'></img></div><div class = decision-right style='background:#FF9966; width:330px;height:230px;'><img class = 'decision-stim' src= 'images/12.png'></img></div>",
            "trial_count": 10,
            "internal_chunk_id": "0-0.5-10.0-10",
            "time_elapsed": 163209,
            "key_press": 39,
            "type": "decision_first",
            "trial_index": 0,
            "trial_index_global": 122
        },
        {
            "rt": -1,
            "trial_type": "single-stim",
            "stimulus": "<div class = 'selected decision-right' style='background:#FF9966; width:330px;height:230px;'><img class = 'decision-stim' src= 'images/12.png'></div><div class = 'decision-left fade' style='background:#FF9966; width:330px;height:230px;'><img class = 'decision-stim  fade' src= 'images/14.png'></div>",
            "internal_chunk_id": "0-0.5-10.0-10",
            "time_elapsed": 164213,
            "key_press": -1,
            "trial_index": 0,
            "trial_index_global": 123
        },
        {
            "rt": 616,
            "trial_type": "single-stim",
            "stimulus": "<div class = 'decision-top-background faded' style='background:#FF9966; width:330px;height:230px;'><img class = 'decision-stim' src= 'images/12.png'></div><div class = decision-left style='background:#C2C2FF; width:330px;height:230px;'><img class = 'decision-stim' src= 'images/13.png'></img></div><div class = decision-right style='background:#C2C2FF; width:330px;height:230px;'><img class = 'decision-stim' src= 'images/16.png'></img></div>",
            "trial_count": 10,
            "internal_chunk_id": "0-0.5-10",
            "time_elapsed": 165009,
            "key_press": 39,
            "type": "decision_second",
            "trial_index": 0,
            "trial_index_global": 124
        },
        {
            "rt": -1,
            "trial_type": "single-stim",
            "stimulus": "<div class = 'decision-right selected' style='background:#C2C2FF; width:330px;height:230px;'><img class = 'decision-stim' src= 'images/16.png'></div><div class = 'fade decision-left' style='background:#C2C2FF; width:330px;height:230px;'><img class = 'decision-stim' src= 'images/13.png'></div>",
            "internal_chunk_id": "0-0.5-10.2-10",
            "time_elapsed": 166014,
            "key_press": -1,
            "trial_index": 0,
            "trial_index_global": 125
        },
        {
            "rt": -1,
            "trial_type": "single-stim",
            "stimulus": "<div class = 'decision-top-background faded' style='background:#C2C2FF; width:330px;height:230px;'><img class = 'decision-stim' src= 'images/16.png'></div><div style = text-align:center><p class = decision-fb style = 'color:red;font-size:60px'>0</p></div>",
            "trial_count": 10,
            "internal_chunk_id": "0-0.5-10.2-10",
            "time_elapsed": 166516,
            "key_press": -1,
            "type": "decision_FB",
            "trial_index": 0,
            "trial_index_global": 126
        },
        {
            "rt": -1,
            "trial_type": "single-stim",
            "stimulus": "",
            "internal_chunk_id": "0-0.5-10.2-10",
            "time_elapsed": 167518,
            "key_press": -1,
            "trial_index": 0,
            "trial_index_global": 127
        },
        {
            "rt": 471,
            "trial_type": "single-stim",
            "stimulus": "<div class = decision-left style='background:#FF9966; width:330px;height:230px;'><img class = 'decision-stim' src= 'images/12.png'></img></div><div class = decision-right style='background:#FF9966; width:330px;height:230px;'><img class = 'decision-stim' src= 'images/14.png'></img></div>",
            "trial_count": 11,
            "internal_chunk_id": "0-0.5-11.0-11",
            "time_elapsed": 168153,
            "key_press": 37,
            "type": "decision_first",
            "trial_index": 0,
            "trial_index_global": 128
        },
        {
            "rt": -1,
            "trial_type": "single-stim",
            "stimulus": "<div class = 'selected decision-left' style='background:#FF9966; width:330px;height:230px;'><img class = 'decision-stim' src= 'images/12.png'></div><div class = 'decision-right fade' style='background:#FF9966; width:330px;height:230px;'><img class = 'decision-stim  fade' src= 'images/14.png'></div>",
            "internal_chunk_id": "0-0.5-11.0-11",
            "time_elapsed": 169158,
            "key_press": -1,
            "trial_index": 0,
            "trial_index_global": 129
        },
        {
            "rt": 607,
            "trial_type": "single-stim",
            "stimulus": "<div class = 'decision-top-background faded' style='background:#FF9966; width:330px;height:230px;'><img class = 'decision-stim' src= 'images/12.png'></div><div class = decision-left style='background:#C2C2FF; width:330px;height:230px;'><img class = 'decision-stim' src= 'images/13.png'></img></div><div class = decision-right style='background:#C2C2FF; width:330px;height:230px;'><img class = 'decision-stim' src= 'images/16.png'></img></div>",
            "trial_count": 11,
            "internal_chunk_id": "0-0.5-11",
            "time_elapsed": 169961,
            "key_press": 39,
            "type": "decision_second",
            "trial_index": 0,
            "trial_index_global": 130
        },
        {
            "rt": -1,
            "trial_type": "single-stim",
            "stimulus": "<div class = 'decision-right selected' style='background:#C2C2FF; width:330px;height:230px;'><img class = 'decision-stim' src= 'images/16.png'></div><div class = 'fade decision-left' style='background:#C2C2FF; width:330px;height:230px;'><img class = 'decision-stim' src= 'images/13.png'></div>",
            "internal_chunk_id": "0-0.5-11.2-11",
            "time_elapsed": 170967,
            "key_press": -1,
            "trial_index": 0,
            "trial_index_global": 131
        },
        {
            "rt": -1,
            "trial_type": "single-stim",
            "stimulus": "<div class = 'decision-top-background faded' style='background:#C2C2FF; width:330px;height:230px;'><img class = 'decision-stim' src= 'images/16.png'></div><div style = text-align:center><p class = decision-fb style = 'color:red;font-size:60px'>0</p></div>",
            "trial_count": 11,
            "internal_chunk_id": "0-0.5-11.2-11",
            "time_elapsed": 171470,
            "key_press": -1,
            "type": "decision_FB",
            "trial_index": 0,
            "trial_index_global": 132
        },
        {
            "rt": -1,
            "trial_type": "single-stim",
            "stimulus": "",
            "internal_chunk_id": "0-0.5-11.2-11",
            "time_elapsed": 172472,
            "key_press": -1,
            "trial_index": 0,
            "trial_index_global": 133
        },
        {
            "rt": 525,
            "trial_type": "single-stim",
            "stimulus": "<div class = decision-left style='background:#FF9966; width:330px;height:230px;'><img class = 'decision-stim' src= 'images/14.png'></img></div><div class = decision-right style='background:#FF9966; width:330px;height:230px;'><img class = 'decision-stim' src= 'images/12.png'></img></div>",
            "trial_count": 12,
            "internal_chunk_id": "0-0.5-12.0-12",
            "time_elapsed": 173193,
            "key_press": 39,
            "type": "decision_first",
            "trial_index": 0,
            "trial_index_global": 134
        },
        {
            "rt": -1,
            "trial_type": "single-stim",
            "stimulus": "<div class = 'selected decision-right' style='background:#FF9966; width:330px;height:230px;'><img class = 'decision-stim' src= 'images/12.png'></div><div class = 'decision-left fade' style='background:#FF9966; width:330px;height:230px;'><img class = 'decision-stim  fade' src= 'images/14.png'></div>",
            "internal_chunk_id": "0-0.5-12.0-12",
            "time_elapsed": 174198,
            "key_press": -1,
            "trial_index": 0,
            "trial_index_global": 135
        },
        {
            "rt": 526,
            "trial_type": "single-stim",
            "stimulus": "<div class = 'decision-top-background faded' style='background:#FF9966; width:330px;height:230px;'><img class = 'decision-stim' src= 'images/12.png'></div><div class = decision-left style='background:#98bf21; width:330px;height:230px;'><img class = 'decision-stim' src= 'images/11.png'></img></div><div class = decision-right style='background:#98bf21; width:330px;height:230px;'><img class = 'decision-stim' src= 'images/15.png'></img></div>",
            "trial_count": 12,
            "internal_chunk_id": "0-0.5-12",
            "time_elapsed": 174905,
            "key_press": 37,
            "type": "decision_second",
            "trial_index": 0,
            "trial_index_global": 136
        },
        {
            "rt": -1,
            "trial_type": "single-stim",
            "stimulus": "<div class = 'decision-left selected' style='background:#98bf21; width:330px;height:230px;'><img class = 'decision-stim' src= 'images/11.png'></div><div class = 'fade decision-right' style='background:#98bf21; width:330px;height:230px;'><img class = 'decision-stim' src= 'images/15.png'></div>",
            "internal_chunk_id": "0-0.5-12.2-12",
            "time_elapsed": 175910,
            "key_press": -1,
            "trial_index": 0,
            "trial_index_global": 137
        },
        {
            "rt": -1,
            "trial_type": "single-stim",
            "stimulus": "<div class = 'decision-top-background faded' style='background:#98bf21; width:330px;height:230px;'><img class = 'decision-stim' src= 'images/11.png'></div><div style = text-align:center><p class = decision-fb style = 'color:red;font-size:60px'>0</p></div>",
            "trial_count": 12,
            "internal_chunk_id": "0-0.5-12.2-12",
            "time_elapsed": 176411,
            "key_press": -1,
            "type": "decision_FB",
            "trial_index": 0,
            "trial_index_global": 138
        },
        {
            "rt": -1,
            "trial_type": "single-stim",
            "stimulus": "",
            "internal_chunk_id": "0-0.5-12.2-12",
            "time_elapsed": 177411,
            "key_press": -1,
            "trial_index": 0,
            "trial_index_global": 139
        },
        {
            "rt": 641,
            "trial_type": "single-stim",
            "stimulus": "<div class = decision-left style='background:#FF9966; width:330px;height:230px;'><img class = 'decision-stim' src= 'images/12.png'></img></div><div class = decision-right style='background:#FF9966; width:330px;height:230px;'><img class = 'decision-stim' src= 'images/14.png'></img></div>",
            "trial_count": 13,
            "internal_chunk_id": "0-0.5-13.0-13",
            "time_elapsed": 178249,
            "key_press": 37,
            "type": "decision_first",
            "trial_index": 0,
            "trial_index_global": 140
        },
        {
            "rt": -1,
            "trial_type": "single-stim",
            "stimulus": "<div class = 'selected decision-left' style='background:#FF9966; width:330px;height:230px;'><img class = 'decision-stim' src= 'images/12.png'></div><div class = 'decision-right fade' style='background:#FF9966; width:330px;height:230px;'><img class = 'decision-stim  fade' src= 'images/14.png'></div>",
            "internal_chunk_id": "0-0.5-13.0-13",
            "time_elapsed": 179253,
            "key_press": -1,
            "trial_index": 0,
            "trial_index_global": 141
        },
        {
            "rt": 695,
            "trial_type": "single-stim",
            "stimulus": "<div class = 'decision-top-background faded' style='background:#FF9966; width:330px;height:230px;'><img class = 'decision-stim' src= 'images/12.png'></div><div class = decision-left style='background:#C2C2FF; width:330px;height:230px;'><img class = 'decision-stim' src= 'images/16.png'></img></div><div class = decision-right style='background:#C2C2FF; width:330px;height:230px;'><img class = 'decision-stim' src= 'images/13.png'></img></div>",
            "trial_count": 13,
            "internal_chunk_id": "0-0.5-13",
            "time_elapsed": 180153,
            "key_press": 37,
            "type": "decision_second",
            "trial_index": 0,
            "trial_index_global": 142
        },
        {
            "rt": -1,
            "trial_type": "single-stim",
            "stimulus": "<div class = 'decision-left selected' style='background:#C2C2FF; width:330px;height:230px;'><img class = 'decision-stim' src= 'images/16.png'></div><div class = 'fade decision-right' style='background:#C2C2FF; width:330px;height:230px;'><img class = 'decision-stim' src= 'images/13.png'></div>",
            "internal_chunk_id": "0-0.5-13.2-13",
            "time_elapsed": 181157,
            "key_press": -1,
            "trial_index": 0,
            "trial_index_global": 143
        },
        {
            "rt": -1,
            "trial_type": "single-stim",
            "stimulus": "<div class = 'decision-top-background faded' style='background:#C2C2FF; width:330px;height:230px;'><img class = 'decision-stim' src= 'images/16.png'></div><div style = text-align:center><p class = decision-fb style = 'color:red;font-size:60px'>0</p></div>",
            "trial_count": 13,
            "internal_chunk_id": "0-0.5-13.2-13",
            "time_elapsed": 181659,
            "key_press": -1,
            "type": "decision_FB",
            "trial_index": 0,
            "trial_index_global": 144
        },
        {
            "rt": -1,
            "trial_type": "single-stim",
            "stimulus": "",
            "internal_chunk_id": "0-0.5-13.2-13",
            "time_elapsed": 182660,
            "key_press": -1,
            "trial_index": 0,
            "trial_index_global": 145
        },
        {
            "rt": 585,
            "trial_type": "single-stim",
            "stimulus": "<div class = decision-left style='background:#FF9966; width:330px;height:230px;'><img class = 'decision-stim' src= 'images/12.png'></img></div><div class = decision-right style='background:#FF9966; width:330px;height:230px;'><img class = 'decision-stim' src= 'images/14.png'></img></div>",
            "trial_count": 14,
            "internal_chunk_id": "0-0.5-14.0-14",
            "time_elapsed": 183441,
            "key_press": 39,
            "type": "decision_first",
            "trial_index": 0,
            "trial_index_global": 146
        },
        {
            "rt": -1,
            "trial_type": "single-stim",
            "stimulus": "<div class = 'selected decision-right' style='background:#FF9966; width:330px;height:230px;'><img class = 'decision-stim' src= 'images/14.png'></div><div class = 'decision-left fade' style='background:#FF9966; width:330px;height:230px;'><img class = 'decision-stim  fade' src= 'images/12.png'></div>",
            "internal_chunk_id": "0-0.5-14.0-14",
            "time_elapsed": 184446,
            "key_press": -1,
            "trial_index": 0,
            "trial_index_global": 147
        },
        {
            "rt": 743,
            "trial_type": "single-stim",
            "stimulus": "<div class = 'decision-top-background faded' style='background:#FF9966; width:330px;height:230px;'><img class = 'decision-stim' src= 'images/14.png'></div><div class = decision-left style='background:#98bf21; width:330px;height:230px;'><img class = 'decision-stim' src= 'images/11.png'></img></div><div class = decision-right style='background:#98bf21; width:330px;height:230px;'><img class = 'decision-stim' src= 'images/15.png'></img></div>",
            "trial_count": 14,
            "internal_chunk_id": "0-0.5-14",
            "time_elapsed": 185337,
            "key_press": 37,
            "type": "decision_second",
            "trial_index": 0,
            "trial_index_global": 148
        },
        {
            "rt": -1,
            "trial_type": "single-stim",
            "stimulus": "<div class = 'decision-left selected' style='background:#98bf21; width:330px;height:230px;'><img class = 'decision-stim' src= 'images/11.png'></div><div class = 'fade decision-right' style='background:#98bf21; width:330px;height:230px;'><img class = 'decision-stim' src= 'images/15.png'></div>",
            "internal_chunk_id": "0-0.5-14.2-14",
            "time_elapsed": 186342,
            "key_press": -1,
            "trial_index": 0,
            "trial_index_global": 149
        },
        {
            "rt": -1,
            "trial_type": "single-stim",
            "stimulus": "<div class = 'decision-top-background faded' style='background:#98bf21; width:330px;height:230px;'><img class = 'decision-stim' src= 'images/11.png'></div><div style = text-align:center><p class = decision-fb style = 'color:red;font-size:60px'>0</p></div>",
            "trial_count": 14,
            "internal_chunk_id": "0-0.5-14.2-14",
            "time_elapsed": 186844,
            "key_press": -1,
            "type": "decision_FB",
            "trial_index": 0,
            "trial_index_global": 150
        },
        {
            "rt": -1,
            "trial_type": "single-stim",
            "stimulus": "",
            "internal_chunk_id": "0-0.5-14.2-14",
            "time_elapsed": 187845,
            "key_press": -1,
            "trial_index": 0,
            "trial_index_global": 151
        },
        {
            "rt": 640,
            "trial_type": "single-stim",
            "stimulus": "<div class = decision-left style='background:#FF9966; width:330px;height:230px;'><img class = 'decision-stim' src= 'images/14.png'></img></div><div class = decision-right style='background:#FF9966; width:330px;height:230px;'><img class = 'decision-stim' src= 'images/12.png'></img></div>",
            "trial_count": 15,
            "internal_chunk_id": "0-0.5-15.0-15",
            "time_elapsed": 188681,
            "key_press": 37,
            "type": "decision_first",
            "trial_index": 0,
            "trial_index_global": 152
        },
        {
            "rt": -1,
            "trial_type": "single-stim",
            "stimulus": "<div class = 'selected decision-left' style='background:#FF9966; width:330px;height:230px;'><img class = 'decision-stim' src= 'images/14.png'></div><div class = 'decision-right fade' style='background:#FF9966; width:330px;height:230px;'><img class = 'decision-stim  fade' src= 'images/12.png'></div>",
            "internal_chunk_id": "0-0.5-15.0-15",
            "time_elapsed": 189686,
            "key_press": -1,
            "trial_index": 0,
            "trial_index_global": 153
        },
        {
            "rt": 487,
            "trial_type": "single-stim",
            "stimulus": "<div class = 'decision-top-background faded' style='background:#FF9966; width:330px;height:230px;'><img class = 'decision-stim' src= 'images/14.png'></div><div class = decision-left style='background:#98bf21; width:330px;height:230px;'><img class = 'decision-stim' src= 'images/15.png'></img></div><div class = decision-right style='background:#98bf21; width:330px;height:230px;'><img class = 'decision-stim' src= 'images/11.png'></img></div>",
            "trial_count": 15,
            "internal_chunk_id": "0-0.5-15",
            "time_elapsed": 190481,
            "key_press": 39,
            "type": "decision_second",
            "trial_index": 0,
            "trial_index_global": 154
        },
        {
            "rt": -1,
            "trial_type": "single-stim",
            "stimulus": "<div class = 'decision-right selected' style='background:#98bf21; width:330px;height:230px;'><img class = 'decision-stim' src= 'images/11.png'></div><div class = 'fade decision-left' style='background:#98bf21; width:330px;height:230px;'><img class = 'decision-stim' src= 'images/15.png'></div>",
            "internal_chunk_id": "0-0.5-15.2-15",
            "time_elapsed": 191486,
            "key_press": -1,
            "trial_index": 0,
            "trial_index_global": 155
        },
        {
            "rt": -1,
            "trial_type": "single-stim",
            "stimulus": "<div class = 'decision-top-background faded' style='background:#98bf21; width:330px;height:230px;'><img class = 'decision-stim' src= 'images/11.png'></div><div><img  class = decision-fb src = 'images/gold_coin.png'></img></div>",
            "trial_count": 15,
            "internal_chunk_id": "0-0.5-15.2-15",
            "time_elapsed": 191987,
            "key_press": -1,
            "type": "decision_FB",
            "trial_index": 0,
            "trial_index_global": 156
        },
        {
            "rt": -1,
            "trial_type": "single-stim",
            "stimulus": "",
            "internal_chunk_id": "0-0.5-15.2-15",
            "time_elapsed": 192987,
            "key_press": -1,
            "trial_index": 0,
            "trial_index_global": 157
        },
        {
            "rt": 601,
            "trial_type": "single-stim",
            "stimulus": "<div class = decision-left style='background:#FF9966; width:330px;height:230px;'><img class = 'decision-stim' src= 'images/12.png'></img></div><div class = decision-right style='background:#FF9966; width:330px;height:230px;'><img class = 'decision-stim' src= 'images/14.png'></img></div>",
            "trial_count": 16,
            "internal_chunk_id": "0-0.5-16.0-16",
            "time_elapsed": 193801,
            "key_press": 39,
            "type": "decision_first",
            "trial_index": 0,
            "trial_index_global": 158
        },
        {
            "rt": -1,
            "trial_type": "single-stim",
            "stimulus": "<div class = 'selected decision-right' style='background:#FF9966; width:330px;height:230px;'><img class = 'decision-stim' src= 'images/14.png'></div><div class = 'decision-left fade' style='background:#FF9966; width:330px;height:230px;'><img class = 'decision-stim  fade' src= 'images/12.png'></div>",
            "internal_chunk_id": "0-0.5-16.0-16",
            "time_elapsed": 194806,
            "key_press": -1,
            "trial_index": 0,
            "trial_index_global": 159
        },
        {
            "rt": 662,
            "trial_type": "single-stim",
            "stimulus": "<div class = 'decision-top-background faded' style='background:#FF9966; width:330px;height:230px;'><img class = 'decision-stim' src= 'images/14.png'></div><div class = decision-left style='background:#C2C2FF; width:330px;height:230px;'><img class = 'decision-stim' src= 'images/16.png'></img></div><div class = decision-right style='background:#C2C2FF; width:330px;height:230px;'><img class = 'decision-stim' src= 'images/13.png'></img></div>",
            "trial_count": 16,
            "internal_chunk_id": "0-0.5-16",
            "time_elapsed": 195657,
            "key_press": 39,
            "type": "decision_second",
            "trial_index": 0,
            "trial_index_global": 160
        },
        {
            "rt": -1,
            "trial_type": "single-stim",
