{
    "AutoApprovalTime": "2015-03-12T02:50:37Z",
    "AssignmentId": "3F1567XTNW5GBRSN0HXNP2YIUZYQ9U",
    "WorkerId": "ABUXM7VAW5SKJ",
    "AcceptTime": "2015-03-10T02:04:04Z",
    "HITId": "363A7XIFV4MJYY0GOJ0W20CPME0VAH",
    "Assignment": "",
    "answer": [
        {
            "rt": 64157,
            "trial_type": "text",
            "internal_chunk_id": "0-0",
            "time_elapsed": 64256,
            "key_press": 13,
            "trial_index": 0,
            "trial_index_global": 0
        },
        {
            "rt": -1,
            "trial_type": "single-stim",
            "stimulus": "<div class = centerbox><p class = 'stroop-stim'>+</p></div>",
            "internal_chunk_id": "0-0.1-0",
            "time_elapsed": 65487,
            "key_press": -1,
            "trial_index": 0,
            "trial_index_global": 1
        },
        {
            "rt": 1434,
            "trial_type": "single-stim",
            "stimulus": "<div class = centerbox><p class = stroop-stim style = \"color:blue\">RED</p></div>",
            "internal_chunk_id": "0-0.1-0",
            "time_elapsed": 67063,
            "key_press": 66,
            "type": "stroop_practice",
            "trial_index": 0,
            "trial_index_global": 2
        },
        {
            "rt": -1,
            "trial_type": "single-stim",
            "stimulus": "",
            "internal_chunk_id": "0-0.1-0",
            "time_elapsed": 67333,
            "key_press": -1,
            "trial_index": 0,
            "trial_index_global": 3
        },
        {
            "rt": -1,
            "trial_type": "single-stim",
            "stimulus": "<div class = centerbox><p class = stroop-stim>correct</p></div>",
            "internal_chunk_id": "0-0.1-0",
            "time_elapsed": 67847,
            "key_press": -1,
            "trial_index": 0,
            "trial_index_global": 4
        },
        {
            "rt": -1,
            "trial_type": "single-stim",
            "stimulus": "",
            "internal_chunk_id": "0-0.1-0",
            "time_elapsed": 68106,
            "key_press": -1,
            "trial_index": 0,
            "trial_index_global": 5
        },
        {
            "rt": -1,
            "trial_type": "single-stim",
            "stimulus": "<div class = centerbox><p class = 'stroop-stim'>+</p></div>",
            "internal_chunk_id": "0-0.1-1",
            "time_elapsed": 68319,
            "key_press": -1,
            "trial_index": 0,
            "trial_index_global": 6
        },
        {
            "rt": 1341,
            "trial_type": "single-stim",
            "stimulus": "<div class = centerbox><p class = stroop-stim style = \"color:red\">RED</p></div>",
            "internal_chunk_id": "0-0.1-1",
            "time_elapsed": 69845,
            "key_press": 82,
            "type": "stroop_practice",
            "trial_index": 0,
            "trial_index_global": 7
        },
        {
            "rt": -1,
            "trial_type": "single-stim",
            "stimulus": "",
            "internal_chunk_id": "0-0.1-1",
            "time_elapsed": 70106,
            "key_press": -1,
            "trial_index": 0,
            "trial_index_global": 8
        },
        {
            "rt": -1,
            "trial_type": "single-stim",
            "stimulus": "<div class = centerbox><p class = stroop-stim>correct</p></div>",
            "internal_chunk_id": "0-0.1-1",
            "time_elapsed": 70620,
            "key_press": -1,
            "trial_index": 0,
            "trial_index_global": 9
        },
        {
            "rt": -1,
            "trial_type": "single-stim",
            "stimulus": "",
            "internal_chunk_id": "0-0.1-1",
            "time_elapsed": 70878,
            "key_press": -1,
            "trial_index": 0,
            "trial_index_global": 10
        },
        {
            "rt": -1,
            "trial_type": "single-stim",
            "stimulus": "<div class = centerbox><p class = 'stroop-stim'>+</p></div>",
            "internal_chunk_id": "0-0.1-2",
            "time_elapsed": 71097,
            "key_press": -1,
            "trial_index": 0,
            "trial_index_global": 11
        },
        {
            "rt": 1042,
            "trial_type": "single-stim",
            "stimulus": "<div class = centerbox><p class = stroop-stim style = \"color:green\">GREEN</p></div>",
            "internal_chunk_id": "0-0.1-2",
            "time_elapsed": 72275,
            "key_press": 71,
            "type": "stroop_practice",
            "trial_index": 0,
            "trial_index_global": 12
        },
        {
            "rt": -1,
            "trial_type": "single-stim",
            "stimulus": "",
            "internal_chunk_id": "0-0.1-2",
            "time_elapsed": 72533,
            "key_press": -1,
            "trial_index": 0,
            "trial_index_global": 13
        },
        {
            "rt": -1,
            "trial_type": "single-stim",
            "stimulus": "<div class = centerbox><p class = stroop-stim>correct</p></div>",
            "internal_chunk_id": "0-0.1-2",
            "time_elapsed": 73045,
            "key_press": -1,
            "trial_index": 0,
            "trial_index_global": 14
        },
        {
            "rt": -1,
            "trial_type": "single-stim",
            "stimulus": "",
            "internal_chunk_id": "0-0.1-2",
            "time_elapsed": 73302,
            "key_press": -1,
            "trial_index": 0,
            "trial_index_global": 15
        },
        {
            "rt": -1,
            "trial_type": "single-stim",
            "stimulus": "<div class = centerbox><p class = 'stroop-stim'>+</p></div>",
            "internal_chunk_id": "0-0.1-3",
            "time_elapsed": 73513,
            "key_press": -1,
            "trial_index": 0,
            "trial_index_global": 16
        },
        {
            "rt": 670,
            "trial_type": "single-stim",
            "stimulus": "<div class = centerbox><p class = stroop-stim style = \"color:green\">GREEN</p></div>",
            "internal_chunk_id": "0-0.1-3",
            "time_elapsed": 74338,
            "key_press": 71,
            "type": "stroop_practice",
            "trial_index": 0,
            "trial_index_global": 17
        },
        {
            "rt": -1,
            "trial_type": "single-stim",
            "stimulus": "",
            "internal_chunk_id": "0-0.1-3",
            "time_elapsed": 74595,
            "key_press": -1,
            "trial_index": 0,
            "trial_index_global": 18
        },
        {
            "rt": -1,
            "trial_type": "single-stim",
            "stimulus": "<div class = centerbox><p class = stroop-stim>correct</p></div>",
            "internal_chunk_id": "0-0.1-3",
            "time_elapsed": 75106,
            "key_press": -1,
            "trial_index": 0,
            "trial_index_global": 19
        },
        {
            "rt": -1,
            "trial_type": "single-stim",
            "stimulus": "",
            "internal_chunk_id": "0-0.1-3",
            "time_elapsed": 75365,
            "key_press": -1,
            "trial_index": 0,
            "trial_index_global": 20
        },
        {
            "rt": -1,
            "trial_type": "single-stim",
            "stimulus": "<div class = centerbox><p class = 'stroop-stim'>+</p></div>",
            "internal_chunk_id": "0-0.1-4",
            "time_elapsed": 75589,
            "key_press": -1,
            "trial_index": 0,
            "trial_index_global": 21
        },
        {
            "rt": 954,
            "trial_type": "single-stim",
            "stimulus": "<div class = centerbox><p class = stroop-stim style = \"color:blue\">BLUE</p></div>",
            "internal_chunk_id": "0-0.1-4",
            "time_elapsed": 76658,
            "key_press": 66,
            "type": "stroop_practice",
            "trial_index": 0,
            "trial_index_global": 22
        },
        {
            "rt": -1,
            "trial_type": "single-stim",
            "stimulus": "",
            "internal_chunk_id": "0-0.1-4",
            "time_elapsed": 76916,
            "key_press": -1,
            "trial_index": 0,
            "trial_index_global": 23
        },
        {
            "rt": -1,
            "trial_type": "single-stim",
            "stimulus": "<div class = centerbox><p class = stroop-stim>correct</p></div>",
            "internal_chunk_id": "0-0.1-4",
            "time_elapsed": 77428,
            "key_press": -1,
            "trial_index": 0,
            "trial_index_global": 24
        },
        {
            "rt": -1,
            "trial_type": "single-stim",
            "stimulus": "",
            "internal_chunk_id": "0-0.1-4",
            "time_elapsed": 77685,
            "key_press": -1,
            "trial_index": 0,
            "trial_index_global": 25
        },
        {
            "rt": -1,
            "trial_type": "single-stim",
            "stimulus": "<div class = centerbox><p class = 'stroop-stim'>+</p></div>",
            "internal_chunk_id": "0-0.1-5",
            "time_elapsed": 77898,
            "key_press": -1,
            "trial_index": 0,
            "trial_index_global": 26
        },
        {
            "rt": 667,
            "trial_type": "single-stim",
            "stimulus": "<div class = centerbox><p class = stroop-stim style = \"color:blue\">BLUE</p></div>",
            "internal_chunk_id": "0-0.1-5",
            "time_elapsed": 78687,
            "key_press": 66,
            "type": "stroop_practice",
            "trial_index": 0,
            "trial_index_global": 27
        },
        {
            "rt": -1,
            "trial_type": "single-stim",
            "stimulus": "",
            "internal_chunk_id": "0-0.1-5",
            "time_elapsed": 78945,
            "key_press": -1,
            "trial_index": 0,
            "trial_index_global": 28
        },
        {
            "rt": -1,
            "trial_type": "single-stim",
            "stimulus": "<div class = centerbox><p class = stroop-stim>correct</p></div>",
            "internal_chunk_id": "0-0.1-5",
            "time_elapsed": 79459,
            "key_press": -1,
            "trial_index": 0,
            "trial_index_global": 29
        },
        {
            "rt": -1,
            "trial_type": "single-stim",
            "stimulus": "",
            "internal_chunk_id": "0-0.1-5",
            "time_elapsed": 79714,
            "key_press": -1,
            "trial_index": 0,
            "trial_index_global": 30
        },
        {
            "rt": -1,
            "trial_type": "single-stim",
            "stimulus": "<div class = centerbox><p class = 'stroop-stim'>+</p></div>",
            "internal_chunk_id": "0-0.1-6",
            "time_elapsed": 79928,
            "key_press": -1,
            "trial_index": 0,
            "trial_index_global": 31
        },
        {
            "rt": 685,
            "trial_type": "single-stim",
            "stimulus": "<div class = centerbox><p class = stroop-stim style = \"color:green\">GREEN</p></div>",
            "internal_chunk_id": "0-0.1-6",
            "time_elapsed": 80749,
            "key_press": 71,
            "type": "stroop_practice",
            "trial_index": 0,
            "trial_index_global": 32
        },
        {
            "rt": -1,
            "trial_type": "single-stim",
            "stimulus": "",
            "internal_chunk_id": "0-0.1-6",
            "time_elapsed": 81006,
            "key_press": -1,
            "trial_index": 0,
            "trial_index_global": 33
        },
        {
            "rt": -1,
            "trial_type": "single-stim",
            "stimulus": "<div class = centerbox><p class = stroop-stim>correct</p></div>",
            "internal_chunk_id": "0-0.1-6",
            "time_elapsed": 81519,
            "key_press": -1,
            "trial_index": 0,
            "trial_index_global": 34
        },
        {
            "rt": -1,
            "trial_type": "single-stim",
            "stimulus": "",
            "internal_chunk_id": "0-0.1-6",
            "time_elapsed": 81776,
            "key_press": -1,
            "trial_index": 0,
            "trial_index_global": 35
        },
        {
            "rt": -1,
            "trial_type": "single-stim",
            "stimulus": "<div class = centerbox><p class = 'stroop-stim'>+</p></div>",
            "internal_chunk_id": "0-0.1-7",
            "time_elapsed": 81991,
            "key_press": -1,
            "trial_index": 0,
            "trial_index_global": 36
        },
        {
            "rt": 440,
            "trial_type": "single-stim",
            "stimulus": "<div class = centerbox><p class = stroop-stim style = \"color:red\">RED</p></div>",
            "internal_chunk_id": "0-0.1-7",
            "time_elapsed": 82551,
            "key_press": 82,
            "type": "stroop_practice",
            "trial_index": 0,
            "trial_index_global": 37
        },
        {
            "rt": -1,
            "trial_type": "single-stim",
            "stimulus": "",
            "internal_chunk_id": "0-0.1-7",
            "time_elapsed": 82808,
            "key_press": -1,
            "trial_index": 0,
            "trial_index_global": 38
        },
        {
            "rt": -1,
            "trial_type": "single-stim",
            "stimulus": "<div class = centerbox><p class = stroop-stim>correct</p></div>",
            "internal_chunk_id": "0-0.1-7",
            "time_elapsed": 83323,
            "key_press": -1,
            "trial_index": 0,
            "trial_index_global": 39
        },
        {
            "rt": -1,
            "trial_type": "single-stim",
            "stimulus": "",
            "internal_chunk_id": "0-0.1-7",
            "time_elapsed": 83579,
            "key_press": -1,
            "trial_index": 0,
            "trial_index_global": 40
        },
        {
            "rt": -1,
            "trial_type": "single-stim",
            "stimulus": "<div class = centerbox><p class = 'stroop-stim'>+</p></div>",
            "internal_chunk_id": "0-0.1-8",
            "time_elapsed": 83794,
            "key_press": -1,
            "trial_index": 0,
            "trial_index_global": 41
        },
        {
            "rt": 751,
            "trial_type": "single-stim",
            "stimulus": "<div class = centerbox><p class = stroop-stim style = \"color:red\">GREEN</p></div>",
            "internal_chunk_id": "0-0.1-8",
            "time_elapsed": 84659,
            "key_press": 82,
            "type": "stroop_practice",
            "trial_index": 0,
            "trial_index_global": 42
        },
        {
            "rt": -1,
            "trial_type": "single-stim",
            "stimulus": "",
            "internal_chunk_id": "0-0.1-8",
            "time_elapsed": 84916,
            "key_press": -1,
            "trial_index": 0,
            "trial_index_global": 43
        },
        {
            "rt": -1,
            "trial_type": "single-stim",
            "stimulus": "<div class = centerbox><p class = stroop-stim>correct</p></div>",
            "internal_chunk_id": "0-0.1-8",
            "time_elapsed": 85432,
            "key_press": -1,
            "trial_index": 0,
            "trial_index_global": 44
        },
        {
            "rt": -1,
            "trial_type": "single-stim",
            "stimulus": "",
            "internal_chunk_id": "0-0.1-8",
            "time_elapsed": 85688,
            "key_press": -1,
            "trial_index": 0,
            "trial_index_global": 45
        },
        {
            "rt": -1,
            "trial_type": "single-stim",
            "stimulus": "<div class = centerbox><p class = 'stroop-stim'>+</p></div>",
            "internal_chunk_id": "0-0.1-9",
            "time_elapsed": 85903,
            "key_press": -1,
            "trial_index": 0,
            "trial_index_global": 46
        },
        {
            "rt": 540,
            "trial_type": "single-stim",
            "stimulus": "<div class = centerbox><p class = stroop-stim style = \"color:blue\">BLUE</p></div>",
            "internal_chunk_id": "0-0.1-9",
            "time_elapsed": 86563,
            "key_press": 66,
            "type": "stroop_practice",
            "trial_index": 0,
            "trial_index_global": 47
        },
        {
            "rt": -1,
            "trial_type": "single-stim",
            "stimulus": "",
            "internal_chunk_id": "0-0.1-9",
            "time_elapsed": 86819,
            "key_press": -1,
            "trial_index": 0,
            "trial_index_global": 48
        },
        {
            "rt": -1,
            "trial_type": "single-stim",
            "stimulus": "<div class = centerbox><p class = stroop-stim>correct</p></div>",
            "internal_chunk_id": "0-0.1-9",
            "time_elapsed": 87336,
            "key_press": -1,
            "trial_index": 0,
            "trial_index_global": 49
        },
        {
            "rt": -1,
            "trial_type": "single-stim",
            "stimulus": "",
            "internal_chunk_id": "0-0.1-9",
            "time_elapsed": 87593,
            "key_press": -1,
            "trial_index": 0,
            "trial_index_global": 50
        },
        {
            "rt": -1,
            "trial_type": "single-stim",
            "stimulus": "<div class = centerbox><p class = 'stroop-stim'>+</p></div>",
            "internal_chunk_id": "0-0.1-10",
            "time_elapsed": 87810,
            "key_press": -1,
            "trial_index": 0,
            "trial_index_global": 51
        },
        {
            "rt": 716,
            "trial_type": "single-stim",
            "stimulus": "<div class = centerbox><p class = stroop-stim style = \"color:red\">GREEN</p></div>",
            "internal_chunk_id": "0-0.1-10",
            "time_elapsed": 88659,
            "key_press": 82,
            "type": "stroop_practice",
            "trial_index": 0,
            "trial_index_global": 52
        },
        {
            "rt": -1,
            "trial_type": "single-stim",
            "stimulus": "",
            "internal_chunk_id": "0-0.1-10",
            "time_elapsed": 88916,
            "key_press": -1,
            "trial_index": 0,
            "trial_index_global": 53
        },
        {
            "rt": -1,
            "trial_type": "single-stim",
            "stimulus": "<div class = centerbox><p class = stroop-stim>correct</p></div>",
            "internal_chunk_id": "0-0.1-10",
            "time_elapsed": 89434,
            "key_press": -1,
            "trial_index": 0,
            "trial_index_global": 54
        },
        {
            "rt": -1,
            "trial_type": "single-stim",
            "stimulus": "",
            "internal_chunk_id": "0-0.1-10",
            "time_elapsed": 89691,
            "key_press": -1,
            "trial_index": 0,
            "trial_index_global": 55
        },
        {
            "rt": -1,
            "trial_type": "single-stim",
            "stimulus": "<div class = centerbox><p class = 'stroop-stim'>+</p></div>",
            "internal_chunk_id": "0-0.1-11",
            "time_elapsed": 89910,
            "key_press": -1,
            "trial_index": 0,
            "trial_index_global": 56
        },
        {
            "rt": 704,
            "trial_type": "single-stim",
            "stimulus": "<div class = centerbox><p class = stroop-stim style = \"color:blue\">BLUE</p></div>",
            "internal_chunk_id": "0-0.1-11",
            "time_elapsed": 90722,
            "key_press": 66,
            "type": "stroop_practice",
            "trial_index": 0,
            "trial_index_global": 57
        },
        {
            "rt": -1,
            "trial_type": "single-stim",
            "stimulus": "",
            "internal_chunk_id": "0-0.1-11",
            "time_elapsed": 90997,
            "key_press": -1,
            "trial_index": 0,
            "trial_index_global": 58
        },
        {
            "rt": -1,
            "trial_type": "single-stim",
            "stimulus": "<div class = centerbox><p class = stroop-stim>correct</p></div>",
            "internal_chunk_id": "0-0.1-11",
            "time_elapsed": 91524,
            "key_press": -1,
            "trial_index": 0,
            "trial_index_global": 59
        },
        {
            "rt": -1,
            "trial_type": "single-stim",
            "stimulus": "",
            "internal_chunk_id": "0-0.1-11",
            "time_elapsed": 91785,
            "key_press": -1,
            "trial_index": 0,
            "trial_index_global": 60
        },
        {
            "rt": -1,
            "trial_type": "single-stim",
            "stimulus": "<div class = centerbox><p class = 'stroop-stim'>+</p></div>",
            "internal_chunk_id": "0-0.1-12",
            "time_elapsed": 92005,
            "key_press": -1,
            "trial_index": 0,
            "trial_index_global": 61
        },
        {
            "rt": 1456,
            "trial_type": "single-stim",
            "stimulus": "<div class = centerbox><p class = stroop-stim style = \"color:red\">BLUE</p></div>",
            "internal_chunk_id": "0-0.1-12",
            "time_elapsed": 93610,
            "key_press": 82,
            "type": "stroop_practice",
            "trial_index": 0,
            "trial_index_global": 62
        },
        {
            "rt": -1,
            "trial_type": "single-stim",
            "stimulus": "",
            "internal_chunk_id": "0-0.1-12",
            "time_elapsed": 93868,
            "key_press": -1,
            "trial_index": 0,
            "trial_index_global": 63
        },
        {
            "rt": -1,
            "trial_type": "single-stim",
            "stimulus": "<div class = centerbox><p class = stroop-stim>correct</p></div>",
            "internal_chunk_id": "0-0.1-12",
            "time_elapsed": 94402,
            "key_press": -1,
            "trial_index": 0,
            "trial_index_global": 64
        },
        {
            "rt": -1,
            "trial_type": "single-stim",
            "stimulus": "",
            "internal_chunk_id": "0-0.1-12",
            "time_elapsed": 94659,
            "key_press": -1,
            "trial_index": 0,
            "trial_index_global": 65
        },
        {
            "rt": -1,
            "trial_type": "single-stim",
            "stimulus": "<div class = centerbox><p class = 'stroop-stim'>+</p></div>",
            "internal_chunk_id": "0-0.1-13",
            "time_elapsed": 94879,
            "key_press": -1,
            "trial_index": 0,
            "trial_index_global": 66
        },
        {
            "rt": 1486,
            "trial_type": "single-stim",
            "stimulus": "<div class = centerbox><p class = stroop-stim style = \"color:red\">RED</p></div>",
            "internal_chunk_id": "0-0.1-13",
            "time_elapsed": 96518,
            "key_press": 82,
            "type": "stroop_practice",
            "trial_index": 0,
            "trial_index_global": 67
        },
        {
            "rt": -1,
            "trial_type": "single-stim",
            "stimulus": "",
            "internal_chunk_id": "0-0.1-13",
            "time_elapsed": 96782,
            "key_press": -1,
            "trial_index": 0,
            "trial_index_global": 68
        },
        {
            "rt": -1,
            "trial_type": "single-stim",
            "stimulus": "<div class = centerbox><p class = stroop-stim>correct</p></div>",
            "internal_chunk_id": "0-0.1-13",
            "time_elapsed": 97303,
            "key_press": -1,
            "trial_index": 0,
            "trial_index_global": 69
        },
        {
            "rt": -1,
            "trial_type": "single-stim",
            "stimulus": "",
            "internal_chunk_id": "0-0.1-13",
            "time_elapsed": 97563,
            "key_press": -1,
            "trial_index": 0,
            "trial_index_global": 70
        },
        {
            "rt": -1,
            "trial_type": "single-stim",
            "stimulus": "<div class = centerbox><p class = 'stroop-stim'>+</p></div>",
            "internal_chunk_id": "0-0.1-14",
            "time_elapsed": 97793,
            "key_press": -1,
            "trial_index": 0,
            "trial_index_global": 71
        },
        {
            "rt": 1578,
            "trial_type": "single-stim",
            "stimulus": "<div class = centerbox><p class = stroop-stim style = \"color:blue\">GREEN</p></div>",
            "internal_chunk_id": "0-0.1-14",
            "time_elapsed": 99521,
            "key_press": 66,
            "type": "stroop_practice",
            "trial_index": 0,
            "trial_index_global": 72
        },
        {
            "rt": -1,
            "trial_type": "single-stim",
            "stimulus": "",
            "internal_chunk_id": "0-0.1-14",
            "time_elapsed": 99787,
            "key_press": -1,
            "trial_index": 0,
            "trial_index_global": 73
        },
        {
            "rt": -1,
            "trial_type": "single-stim",
            "stimulus": "<div class = centerbox><p class = stroop-stim>correct</p></div>",
            "internal_chunk_id": "0-0.1-14",
            "time_elapsed": 100317,
            "key_press": -1,
            "trial_index": 0,
            "trial_index_global": 74
        },
        {
            "rt": -1,
            "trial_type": "single-stim",
            "stimulus": "",
            "internal_chunk_id": "0-0.1-14",
            "time_elapsed": 100577,
            "key_press": -1,
            "trial_index": 0,
            "trial_index_global": 75
        },
        {
            "rt": -1,
            "trial_type": "single-stim",
            "stimulus": "<div class = centerbox><p class = 'stroop-stim'>+</p></div>",
            "internal_chunk_id": "0-0.1-15",
            "time_elapsed": 100808,
            "key_press": -1,
            "trial_index": 0,
            "trial_index_global": 76
        },
        {
            "rt": 819,
            "trial_type": "single-stim",
            "stimulus": "<div class = centerbox><p class = stroop-stim style = \"color:green\">RED</p></div>",
            "internal_chunk_id": "0-0.1-15",
            "time_elapsed": 101758,
            "key_press": 71,
            "type": "stroop_practice",
            "trial_index": 0,
            "trial_index_global": 77
        },
        {
            "rt": -1,
            "trial_type": "single-stim",
            "stimulus": "",
            "internal_chunk_id": "0-0.1-15",
            "time_elapsed": 102020,
            "key_press": -1,
            "trial_index": 0,
            "trial_index_global": 78
        },
        {
            "rt": -1,
            "trial_type": "single-stim",
            "stimulus": "<div class = centerbox><p class = stroop-stim>correct</p></div>",
            "internal_chunk_id": "0-0.1-15",
            "time_elapsed": 102550,
            "key_press": -1,
            "trial_index": 0,
            "trial_index_global": 79
        },
        {
            "rt": -1,
            "trial_type": "single-stim",
            "stimulus": "",
            "internal_chunk_id": "0-0.1-15",
            "time_elapsed": 102811,
            "key_press": -1,
            "trial_index": 0,
            "trial_index_global": 80
        },
        {
            "rt": -1,
            "trial_type": "single-stim",
            "stimulus": "<div class = centerbox><p class = 'stroop-stim'>+</p></div>",
            "internal_chunk_id": "0-0.1-16",
            "time_elapsed": 103041,
            "key_press": -1,
            "trial_index": 0,
            "trial_index_global": 81
        },
        {
            "rt": 833,
            "trial_type": "single-stim",
            "stimulus": "<div class = centerbox><p class = stroop-stim style = \"color:red\">BLUE</p></div>",
            "internal_chunk_id": "0-0.1-16",
            "time_elapsed": 104020,
            "key_press": 82,
            "type": "stroop_practice",
            "trial_index": 0,
            "trial_index_global": 82
        },
        {
            "rt": -1,
            "trial_type": "single-stim",
            "stimulus": "",
            "internal_chunk_id": "0-0.1-16",
            "time_elapsed": 104283,
            "key_press": -1,
            "trial_index": 0,
            "trial_index_global": 83
        },
        {
            "rt": -1,
            "trial_type": "single-stim",
            "stimulus": "<div class = centerbox><p class = stroop-stim>correct</p></div>",
            "internal_chunk_id": "0-0.1-16",
            "time_elapsed": 104814,
            "key_press": -1,
            "trial_index": 0,
            "trial_index_global": 84
        },
        {
            "rt": -1,
            "trial_type": "single-stim",
            "stimulus": "",
            "internal_chunk_id": "0-0.1-16",
            "time_elapsed": 105074,
            "key_press": -1,
            "trial_index": 0,
            "trial_index_global": 85
        },
        {
            "rt": -1,
            "trial_type": "single-stim",
            "stimulus": "<div class = centerbox><p class = 'stroop-stim'>+</p></div>",
            "internal_chunk_id": "0-0.1-17",
            "time_elapsed": 105304,
            "key_press": -1,
            "trial_index": 0,
            "trial_index_global": 86
        },
        {
            "rt": 789,
            "trial_type": "single-stim",
            "stimulus": "<div class = centerbox><p class = stroop-stim style = \"color:green\">BLUE</p></div>",
            "internal_chunk_id": "0-0.1-17",
            "time_elapsed": 106231,
            "key_press": 71,
            "type": "stroop_practice",
            "trial_index": 0,
            "trial_index_global": 87
        },
        {
            "rt": -1,
            "trial_type": "single-stim",
            "stimulus": "",
            "internal_chunk_id": "0-0.1-17",
            "time_elapsed": 106496,
            "key_press": -1,
            "trial_index": 0,
            "trial_index_global": 88
        },
        {
            "rt": -1,
            "trial_type": "single-stim",
            "stimulus": "<div class = centerbox><p class = stroop-stim>correct</p></div>",
            "internal_chunk_id": "0-0.1-17",
            "time_elapsed": 107027,
            "key_press": -1,
            "trial_index": 0,
            "trial_index_global": 89
        },
        {
            "rt": -1,
            "trial_type": "single-stim",
            "stimulus": "",
            "internal_chunk_id": "0-0.1-17",
            "time_elapsed": 107287,
            "key_press": -1,
            "trial_index": 0,
            "trial_index_global": 90
        },
        {
            "rt": -1,
            "trial_type": "single-stim",
            "stimulus": "<div class = centerbox><p class = 'stroop-stim'>+</p></div>",
            "internal_chunk_id": "0-0.1-18",
            "time_elapsed": 107528,
            "key_press": -1,
            "trial_index": 0,
            "trial_index_global": 91
        },
        {
            "rt": 590,
            "trial_type": "single-stim",
            "stimulus": "<div class = centerbox><p class = stroop-stim style = \"color:red\">RED</p></div>",
            "internal_chunk_id": "0-0.1-18",
            "time_elapsed": 108252,
            "key_press": 82,
            "type": "stroop_practice",
            "trial_index": 0,
            "trial_index_global": 92
        },
        {
            "rt": -1,
            "trial_type": "single-stim",
            "stimulus": "",
            "internal_chunk_id": "0-0.1-18",
            "time_elapsed": 108509,
            "key_press": -1,
            "trial_index": 0,
            "trial_index_global": 93
        },
        {
            "rt": -1,
            "trial_type": "single-stim",
            "stimulus": "<div class = centerbox><p class = stroop-stim>correct</p></div>",
            "internal_chunk_id": "0-0.1-18",
            "time_elapsed": 109040,
            "key_press": -1,
            "trial_index": 0,
            "trial_index_global": 94
        },
        {
            "rt": -1,
            "trial_type": "single-stim",
            "stimulus": "",
            "internal_chunk_id": "0-0.1-18",
            "time_elapsed": 109300,
            "key_press": -1,
            "trial_index": 0,
            "trial_index_global": 95
        },
        {
            "rt": -1,
            "trial_type": "single-stim",
            "stimulus": "<div class = centerbox><p class = 'stroop-stim'>+</p></div>",
            "internal_chunk_id": "0-0.1-19",
            "time_elapsed": 109530,
            "key_press": -1,
            "trial_index": 0,
            "trial_index_global": 96
        },
        {
            "rt": 860,
            "trial_type": "single-stim",
            "stimulus": "<div class = centerbox><p class = stroop-stim style = \"color:blue\">GREEN</p></div>",
            "internal_chunk_id": "0-0.1-19",
            "time_elapsed": 110510,
            "key_press": 66,
            "type": "stroop_practice",
            "trial_index": 0,
            "trial_index_global": 97
        },
        {
            "rt": -1,
            "trial_type": "single-stim",
            "stimulus": "",
            "internal_chunk_id": "0-0.1-19",
            "time_elapsed": 110772,
            "key_press": -1,
            "trial_index": 0,
            "trial_index_global": 98
        },
        {
            "rt": -1,
            "trial_type": "single-stim",
            "stimulus": "<div class = centerbox><p class = stroop-stim>correct</p></div>",
            "internal_chunk_id": "0-0.1-19",
            "time_elapsed": 111303,
            "key_press": -1,
            "trial_index": 0,
            "trial_index_global": 99
        },
        {
            "rt": -1,
            "trial_type": "single-stim",
            "stimulus": "",
            "internal_chunk_id": "0-0.1-19",
            "time_elapsed": 111563,
            "key_press": -1,
            "trial_index": 0,
            "trial_index_global": 100
        },
        {
            "rt": -1,
            "trial_type": "single-stim",
            "stimulus": "<div class = centerbox><p class = 'stroop-stim'>+</p></div>",
            "internal_chunk_id": "0-0.1-20",
            "time_elapsed": 111793,
            "key_press": -1,
            "trial_index": 0,
            "trial_index_global": 101
        },
        {
            "rt": 1296,
            "trial_type": "single-stim",
            "stimulus": "<div class = centerbox><p class = stroop-stim style = \"color:green\">BLUE</p></div>",
            "internal_chunk_id": "0-0.1-20",
            "time_elapsed": 113239,
            "key_press": 71,
            "type": "stroop_practice",
            "trial_index": 0,
            "trial_index_global": 102
        },
        {
            "rt": -1,
            "trial_type": "single-stim",
            "stimulus": "",
            "internal_chunk_id": "0-0.1-20",
            "time_elapsed": 113496,
            "key_press": -1,
            "trial_index": 0,
            "trial_index_global": 103
        },
        {
            "rt": -1,
            "trial_type": "single-stim",
            "stimulus": "<div class = centerbox><p class = stroop-stim>correct</p></div>",
            "internal_chunk_id": "0-0.1-20",
            "time_elapsed": 114047,
            "key_press": -1,
            "trial_index": 0,
            "trial_index_global": 104
        },
        {
            "rt": -1,
            "trial_type": "single-stim",
            "stimulus": "",
            "internal_chunk_id": "0-0.1-20",
            "time_elapsed": 114317,
            "key_press": -1,
            "trial_index": 0,
            "trial_index_global": 105
        },
        {
            "rt": -1,
            "trial_type": "single-stim",
            "stimulus": "<div class = centerbox><p class = 'stroop-stim'>+</p></div>",
            "internal_chunk_id": "0-0.1-21",
            "time_elapsed": 114578,
            "key_press": -1,
            "trial_index": 0,
            "trial_index_global": 106
        },
        {
            "rt": 1605,
            "trial_type": "single-stim",
            "stimulus": "<div class = centerbox><p class = stroop-stim style = \"color:blue\">RED</p></div>",
            "internal_chunk_id": "0-0.1-21",
            "time_elapsed": 116194,
            "key_press": 66,
            "type": "stroop_practice",
            "trial_index": 0,
            "trial_index_global": 107
        },
        {
            "rt": -1,
            "trial_type": "single-stim",
            "stimulus": "",
            "internal_chunk_id": "0-0.1-21",
            "time_elapsed": 116460,
            "key_press": -1,
            "trial_index": 0,
            "trial_index_global": 108
        },
        {
            "rt": -1,
            "trial_type": "single-stim",
            "stimulus": "<div class = centerbox><p class = stroop-stim>correct</p></div>",
            "internal_chunk_id": "0-0.1-21",
            "time_elapsed": 117021,
            "key_press": -1,
            "trial_index": 0,
            "trial_index_global": 109
        },
        {
            "rt": -1,
            "trial_type": "single-stim",
            "stimulus": "",
            "internal_chunk_id": "0-0.1-21",
            "time_elapsed": 117282,
            "key_press": -1,
            "trial_index": 0,
            "trial_index_global": 110
        },
        {
            "rt": -1,
            "trial_type": "single-stim",
            "stimulus": "<div class = centerbox><p class = 'stroop-stim'>+</p></div>",
            "internal_chunk_id": "0-0.1-22",
            "time_elapsed": 117533,
            "key_press": -1,
            "trial_index": 0,
            "trial_index_global": 111
        },
        {
            "rt": 964,
            "trial_type": "single-stim",
            "stimulus": "<div class = centerbox><p class = stroop-stim style = \"color:green\">RED</p></div>",
            "internal_chunk_id": "0-0.1-22",
            "time_elapsed": 118638,
            "key_press": 71,
            "type": "stroop_practice",
            "trial_index": 0,
            "trial_index_global": 112
        },
        {
            "rt": -1,
            "trial_type": "single-stim",
            "stimulus": "",
            "internal_chunk_id": "0-0.1-22",
            "time_elapsed": 118904,
            "key_press": -1,
            "trial_index": 0,
            "trial_index_global": 113
        },
        {
            "rt": -1,
            "trial_type": "single-stim",
            "stimulus": "<div class = centerbox><p class = stroop-stim>correct</p></div>",
            "internal_chunk_id": "0-0.1-22",
            "time_elapsed": 119545,
            "key_press": -1,
            "trial_index": 0,
            "trial_index_global": 114
        },
        {
            "rt": -1,
            "trial_type": "single-stim",
            "stimulus": "",
            "internal_chunk_id": "0-0.1-22",
            "time_elapsed": 119805,
            "key_press": -1,
            "trial_index": 0,
            "trial_index_global": 115
        },
        {
            "rt": -1,
            "trial_type": "single-stim",
            "stimulus": "<div class = centerbox><p class = 'stroop-stim'>+</p></div>",
            "internal_chunk_id": "0-0.1-23",
            "time_elapsed": 120036,
            "key_press": -1,
            "trial_index": 0,
            "trial_index_global": 116
        },
        {
            "rt": 731,
            "trial_type": "single-stim",
            "stimulus": "<div class = centerbox><p class = stroop-stim style = \"color:green\">GREEN</p></div>",
            "internal_chunk_id": "0-0.1-23",
            "time_elapsed": 120904,
            "key_press": 71,
            "type": "stroop_practice",
            "trial_index": 0,
            "trial_index_global": 117
        },
        {
            "rt": -1,
            "trial_type": "single-stim",
            "stimulus": "",
            "internal_chunk_id": "0-0.1-23",
            "time_elapsed": 121167,
            "key_press": -1,
            "trial_index": 0,
            "trial_index_global": 118
        },
        {
            "rt": -1,
            "trial_type": "single-stim",
            "stimulus": "<div class = centerbox><p class = stroop-stim>correct</p></div>",
            "internal_chunk_id": "0-0.1-23",
            "time_elapsed": 121708,
            "key_press": -1,
            "trial_index": 0,
            "trial_index_global": 119
        },
        {
            "rt": -1,
            "trial_type": "single-stim",
            "stimulus": "",
            "internal_chunk_id": "0-0.1-23",
            "time_elapsed": 121968,
            "key_press": -1,
            "trial_index": 0,
            "trial_index_global": 120
        },
        {
            "rt": 23345,
            "trial_type": "text",
            "internal_chunk_id": "0-0",
            "time_elapsed": 145440,
            "key_press": 13,
            "trial_index": 0,
            "trial_index_global": 121
        },
        {
            "rt": -1,
            "trial_type": "single-stim",
            "stimulus": "<div class = centerbox><p class = 'stroop-stim'>+</p></div>",
            "internal_chunk_id": "0-0.3-0",
            "time_elapsed": 146654,
            "key_press": -1,
            "trial_index": 0,
            "trial_index_global": 122
        },
        {
            "rt": 713,
            "trial_type": "single-stim",
            "stimulus": "<div class = centerbox><p class = stroop-stim style = \"color:red\">GREEN</p></div>",
            "internal_chunk_id": "0-0.3-0",
            "time_elapsed": 147503,
            "key_press": 82,
            "type": "stroop_frequent",
            "trial_index": 0,
            "trial_index_global": 123
        },
        {
            "rt": -1,
            "trial_type": "single-stim",
            "stimulus": "",
            "internal_chunk_id": "0-0.3-0",
            "time_elapsed": 147765,
            "key_press": -1,
            "trial_index": 0,
            "trial_index_global": 124
        },
        {
            "rt": -1,
            "trial_type": "single-stim",
            "stimulus": "<div class = centerbox><p class = 'stroop-stim'>+</p></div>",
            "internal_chunk_id": "0-0.3-1",
            "time_elapsed": 148006,
            "key_press": -1,
            "trial_index": 0,
            "trial_index_global": 125
        },
        {
            "rt": 702,
            "trial_type": "single-stim",
            "stimulus": "<div class = centerbox><p class = stroop-stim style = \"color:blue\">BLUE</p></div>",
            "internal_chunk_id": "0-0.3-1",
            "time_elapsed": 148835,
            "key_press": 66,
            "type": "stroop_frequent",
            "trial_index": 0,
            "trial_index_global": 126
        },
        {
            "rt": -1,
            "trial_type": "single-stim",
            "stimulus": "",
            "internal_chunk_id": "0-0.3-1",
            "time_elapsed": 149097,
            "key_press": -1,
            "trial_index": 0,
            "trial_index_global": 127
        },
        {
            "rt": -1,
            "trial_type": "single-stim",
            "stimulus": "<div class = centerbox><p class = 'stroop-stim'>+</p></div>",
            "internal_chunk_id": "0-0.3-2",
            "time_elapsed": 149338,
            "key_press": -1,
            "trial_index": 0,
            "trial_index_global": 128
        },
        {
            "rt": 411,
            "trial_type": "single-stim",
            "stimulus": "<div class = centerbox><p class = stroop-stim style = \"color:green\">RED</p></div>",
            "internal_chunk_id": "0-0.3-2",
            "time_elapsed": 149888,
            "key_press": 71,
            "type": "stroop_frequent",
            "trial_index": 0,
            "trial_index_global": 129
        },
        {
            "rt": -1,
            "trial_type": "single-stim",
            "stimulus": "",
            "internal_chunk_id": "0-0.3-2",
            "time_elapsed": 150149,
            "key_press": -1,
            "trial_index": 0,
            "trial_index_global": 130
        },
        {
            "rt": -1,
            "trial_type": "single-stim",
            "stimulus": "<div class = centerbox><p class = 'stroop-stim'>+</p></div>",
            "internal_chunk_id": "0-0.3-3",
            "time_elapsed": 150389,
            "key_press": -1,
            "trial_index": 0,
            "trial_index_global": 131
        },
        {
            "rt": 509,
            "trial_type": "single-stim",
            "stimulus": "<div class = centerbox><p class = stroop-stim style = \"color:green\">RED</p></div>",
            "internal_chunk_id": "0-0.3-3",
            "time_elapsed": 151042,
            "key_press": 71,
            "type": "stroop_frequent",
            "trial_index": 0,
            "trial_index_global": 132
        },
        {
            "rt": -1,
            "trial_type": "single-stim",
            "stimulus": "",
            "internal_chunk_id": "0-0.3-3",
            "time_elapsed": 151300,
            "key_press": -1,
            "trial_index": 0,
            "trial_index_global": 133
        },
        {
            "rt": -1,
            "trial_type": "single-stim",
            "stimulus": "<div class = centerbox><p class = 'stroop-stim'>+</p></div>",
            "internal_chunk_id": "0-0.3-4",
            "time_elapsed": 151534,
            "key_press": -1,
            "trial_index": 0,
            "trial_index_global": 134
        },
        {
            "rt": 452,
            "trial_type": "single-stim",
            "stimulus": "<div class = centerbox><p class = stroop-stim style = \"color:blue\">GREEN</p></div>",
            "internal_chunk_id": "0-0.3-4",
            "time_elapsed": 152096,
            "key_press": 66,
            "type": "stroop_frequent",
            "trial_index": 0,
            "trial_index_global": 135
        },
        {
            "rt": -1,
            "trial_type": "single-stim",
            "stimulus": "",
            "internal_chunk_id": "0-0.3-4",
            "time_elapsed": 152352,
            "key_press": -1,
            "trial_index": 0,
            "trial_index_global": 136
        },
        {
            "rt": -1,
            "trial_type": "single-stim",
            "stimulus": "<div class = centerbox><p class = 'stroop-stim'>+</p></div>",
            "internal_chunk_id": "0-0.3-5",
            "time_elapsed": 152602,
            "key_press": -1,
            "trial_index": 0,
            "trial_index_global": 137
        },
        {
            "rt": 553,
            "trial_type": "single-stim",
            "stimulus": "<div class = centerbox><p class = stroop-stim style = \"color:blue\">BLUE</p></div>",
            "internal_chunk_id": "0-0.3-5",
            "time_elapsed": 153277,
            "key_press": 66,
            "type": "stroop_frequent",
            "trial_index": 0,
            "trial_index_global": 138
        },
        {
            "rt": -1,
            "trial_type": "single-stim",
            "stimulus": "",
            "internal_chunk_id": "0-0.3-5",
            "time_elapsed": 153534,
            "key_press": -1,
            "trial_index": 0,
            "trial_index_global": 139
        },
        {
            "rt": -1,
            "trial_type": "single-stim",
            "stimulus": "<div class = centerbox><p class = 'stroop-stim'>+</p></div>",
            "internal_chunk_id": "0-0.3-6",
            "time_elapsed": 153774,
            "key_press": -1,
            "trial_index": 0,
            "trial_index_global": 140
        },
        {
            "rt": 452,
            "trial_type": "single-stim",
            "stimulus": "<div class = centerbox><p class = stroop-stim style = \"color:blue\">GREEN</p></div>",
            "internal_chunk_id": "0-0.3-6",
            "time_elapsed": 154345,
            "key_press": 66,
            "type": "stroop_frequent",
            "trial_index": 0,
            "trial_index_global": 141
        },
        {
            "rt": -1,
            "trial_type": "single-stim",
            "stimulus": "",
            "internal_chunk_id": "0-0.3-6",
            "time_elapsed": 154605,
            "key_press": -1,
            "trial_index": 0,
            "trial_index_global": 142
        },
        {
            "rt": -1,
            "trial_type": "single-stim",
            "stimulus": "<div class = centerbox><p class = 'stroop-stim'>+</p></div>",
            "internal_chunk_id": "0-0.3-7",
            "time_elapsed": 154845,
            "key_press": -1,
            "trial_index": 0,
            "trial_index_global": 143
        },
        {
            "rt": 489,
            "trial_type": "single-stim",
            "stimulus": "<div class = centerbox><p class = stroop-stim style = \"color:green\">BLUE</p></div>",
            "internal_chunk_id": "0-0.3-7",
            "time_elapsed": 155483,
            "key_press": 71,
            "type": "stroop_frequent",
            "trial_index": 0,
            "trial_index_global": 144
        },
        {
            "rt": -1,
            "trial_type": "single-stim",
            "stimulus": "",
            "internal_chunk_id": "0-0.3-7",
            "time_elapsed": 155747,
            "key_press": -1,
            "trial_index": 0,
            "trial_index_global": 145
        },
        {
            "rt": -1,
            "trial_type": "single-stim",
            "stimulus": "<div class = centerbox><p class = 'stroop-stim'>+</p></div>",
            "internal_chunk_id": "0-0.3-8",
            "time_elapsed": 155997,
            "key_press": -1,
            "trial_index": 0,
            "trial_index_global": 146
        },
        {
            "rt": 567,
            "trial_type": "single-stim",
            "stimulus": "<div class = centerbox><p class = stroop-stim style = \"color:green\">GREEN</p></div>",
            "internal_chunk_id": "0-0.3-8",
            "time_elapsed": 156673,
            "key_press": 71,
            "type": "stroop_frequent",
            "trial_index": 0,
            "trial_index_global": 147
        },
        {
            "rt": -1,
            "trial_type": "single-stim",
            "stimulus": "",
            "internal_chunk_id": "0-0.3-8",
            "time_elapsed": 156938,
            "key_press": -1,
            "trial_index": 0,
            "trial_index_global": 148
        },
        {
            "rt": -1,
            "trial_type": "single-stim",
            "stimulus": "<div class = centerbox><p class = 'stroop-stim'>+</p></div>",
            "internal_chunk_id": "0-0.3-9",
            "time_elapsed": 157179,
            "key_press": -1,
            "trial_index": 0,
            "trial_index_global": 149
        },
        {
            "rt": 593,
            "trial_type": "single-stim",
            "stimulus": "<div class = centerbox><p class = stroop-stim style = \"color:green\">BLUE</p></div>",
            "internal_chunk_id": "0-0.3-9",
            "time_elapsed": 157926,
            "key_press": 71,
            "type": "stroop_frequent",
            "trial_index": 0,
            "trial_index_global": 150
        },
        {
            "rt": -1,
            "trial_type": "single-stim",
            "stimulus": "",
            "internal_chunk_id": "0-0.3-9",
            "time_elapsed": 158191,
            "key_press": -1,
            "trial_index": 0,
            "trial_index_global": 151
        },
        {
            "rt": -1,
            "trial_type": "single-stim",
            "stimulus": "<div class = centerbox><p class = 'stroop-stim'>+</p></div>",
            "internal_chunk_id": "0-0.3-10",
            "time_elapsed": 158431,
            "key_press": -1,
            "trial_index": 0,
            "trial_index_global": 152
        },
        {
            "rt": 841,
            "trial_type": "single-stim",
            "stimulus": "<div class = centerbox><p class = stroop-stim style = \"color:blue\">GREEN</p></div>",
            "internal_chunk_id": "0-0.3-10",
            "time_elapsed": 159449,
            "key_press": 66,
            "type": "stroop_frequent",
            "trial_index": 0,
            "trial_index_global": 153
        },
        {
            "rt": -1,
            "trial_type": "single-stim",
            "stimulus": "",
            "internal_chunk_id": "0-0.3-10",
            "time_elapsed": 159713,
            "key_press": -1,
            "trial_index": 0,
            "trial_index_global": 154
        },
        {
            "rt": -1,
            "trial_type": "single-stim",
            "stimulus": "<div class = centerbox><p class = 'stroop-stim'>+</p></div>",
            "internal_chunk_id": "0-0.3-11",
            "time_elapsed": 159953,
            "key_press": -1,
            "trial_index": 0,
            "trial_index_global": 155
        },
        {
            "rt": 792,
            "trial_type": "single-stim",
            "stimulus": "<div class = centerbox><p class = stroop-stim style = \"color:green\">BLUE</p></div>",
            "internal_chunk_id": "0-0.3-11",
            "time_elapsed": 160932,
            "key_press": 71,
            "type": "stroop_frequent",
            "trial_index": 0,
            "trial_index_global": 156
        },
        {
            "rt": -1,
            "trial_type": "single-stim",
            "stimulus": "",
            "internal_chunk_id": "0-0.3-11",
            "time_elapsed": 161195,
            "key_press": -1,
            "trial_index": 0,
            "trial_index_global": 157
        },
        {
            "rt": -1,
            "trial_type": "single-stim",
            "stimulus": "<div class = centerbox><p class = 'stroop-stim'>+</p></div>",
            "internal_chunk_id": "0-0.3-12",
            "time_elapsed": 161445,
            "key_press": -1,
            "trial_index": 0,
            "trial_index_global": 158
        },
        {
            "rt": 1397,
            "trial_type": "single-stim",
            "stimulus": "<div class = centerbox><p class = stroop-stim style = \"color:green\">BLUE</p></div>",
            "internal_chunk_id": "0-0.3-12",
            "time_elapsed": 163011,
            "key_press": 71,
            "type": "stroop_frequent",
            "trial_index": 0,
            "trial_index_global": 159
        },
        {
            "rt": -1,
            "trial_type": "single-stim",
            "stimulus": "",
            "internal_chunk_id": "0-0.3-12",
            "time_elapsed": 163267,
            "key_press": -1,
            "trial_index": 0,
            "trial_index_global": 160
        },
        {
            "rt": -1,
            "trial_type": "single-stim",
            "stimulus": "<div class = centerbox><p class = 'stroop-stim'>+</p></div>",
            "internal_chunk_id": "0-0.3-13",
            "time_elapsed": 163508,
            "key_press": -1,
            "trial_index": 0,
            "trial_index_global": 161
        },
        {
            "rt": 1052,
            "trial_type": "single-stim",
            "stimulus": "<div class = centerbox><p class = stroop-stim style = \"color:blue\">RED</p></div>",
            "internal_chunk_id": "0-0.3-13",
            "time_elapsed": 164723,
            "key_press": 66,
            "type": "stroop_frequent",
            "trial_index": 0,
            "trial_index_global": 162
        },
        {
            "rt": -1,
            "trial_type": "single-stim",
            "stimulus": "",
            "internal_chunk_id": "0-0.3-13",
            "time_elapsed": 164980,
            "key_press": -1,
            "trial_index": 0,
            "trial_index_global": 163
        },
        {
            "rt": -1,
            "trial_type": "single-stim",
            "stimulus": "<div class = centerbox><p class = 'stroop-stim'>+</p></div>",
            "internal_chunk_id": "0-0.3-14",
            "time_elapsed": 165220,
            "key_press": -1,
            "trial_index": 0,
            "trial_index_global": 164
        },
        {
            "rt": 599,
            "trial_type": "single-stim",
            "stimulus": "<div class = centerbox><p class = stroop-stim style = \"color:blue\">RED</p></div>",
            "internal_chunk_id": "0-0.3-14",
            "time_elapsed": 165993,
            "key_press": 66,
            "type": "stroop_frequent",
            "trial_index": 0,
            "trial_index_global": 165
        },
        {
            "rt": -1,
            "trial_type": "single-stim",
            "stimulus": "",
            "internal_chunk_id": "0-0.3-14",
            "time_elapsed": 166252,
            "key_press": -1,
            "trial_index": 0,
            "trial_index_global": 166
        },
        {
            "rt": -1,
            "trial_type": "single-stim",
            "stimulus": "<div class = centerbox><p class = 'stroop-stim'>+</p></div>",
            "internal_chunk_id": "0-0.3-15",
            "time_elapsed": 166492,
            "key_press": -1,
            "trial_index": 0,
            "trial_index_global": 167
        },
        {
            "rt": 538,
            "trial_type": "single-stim",
            "stimulus": "<div class = centerbox><p class = stroop-stim style = \"color:green\">RED</p></div>",
            "internal_chunk_id": "0-0.3-15",
            "time_elapsed": 167184,
            "key_press": 71,
            "type": "stroop_frequent",
            "trial_index": 0,
            "trial_index_global": 168
        },
        {
            "rt": -1,
            "trial_type": "single-stim",
            "stimulus": "",
            "internal_chunk_id": "0-0.3-15",
            "time_elapsed": 167444,
            "key_press": -1,
            "trial_index": 0,
            "trial_index_global": 169
        },
        {
            "rt": -1,
            "trial_type": "single-stim",
            "stimulus": "<div class = centerbox><p class = 'stroop-stim'>+</p></div>",
            "internal_chunk_id": "0-0.3-16",
            "time_elapsed": 167694,
            "key_press": -1,
            "trial_index": 0,
            "trial_index_global": 170
        },
        {
            "rt": 454,
            "trial_type": "single-stim",
            "stimulus": "<div class = centerbox><p class = stroop-stim style = \"color:blue\">GREEN</p></div>",
            "internal_chunk_id": "0-0.3-16",
            "time_elapsed": 168231,
            "key_press": 71,
            "type": "stroop_frequent",
            "trial_index": 0,
            "trial_index_global": 171
        },
        {
            "rt": -1,
            "trial_type": "single-stim",
            "stimulus": "",
            "internal_chunk_id": "0-0.3-16",
            "time_elapsed": 168495,
            "key_press": -1,
            "trial_index": 0,
            "trial_index_global": 172
        },
        {
            "rt": 3,
            "trial_type": "single-stim",
            "stimulus": "<div class = centerbox><p class = 'stroop-stim'>+</p></div>",
            "internal_chunk_id": "0-0.3-17",
            "time_elapsed": 168745,
            "key_press": 66,
            "trial_index": 0,
            "trial_index_global": 173
        },
        {
            "rt": 961,
            "trial_type": "single-stim",
            "stimulus": "<div class = centerbox><p class = stroop-stim style = \"color:green\">RED</p></div>",
            "internal_chunk_id": "0-0.3-17",
            "time_elapsed": 169869,
            "key_press": 71,
            "type": "stroop_frequent",
            "trial_index": 0,
            "trial_index_global": 174
        },
        {
            "rt": -1,
            "trial_type": "single-stim",
            "stimulus": "",
            "internal_chunk_id": "0-0.3-17",
            "time_elapsed": 170127,
            "key_press": -1,
            "trial_index": 0,
            "trial_index_global": 175
        },
        {
            "rt": -1,
            "trial_type": "single-stim",
            "stimulus": "<div class = centerbox><p class = 'stroop-stim'>+</p></div>",
            "internal_chunk_id": "0-0.3-18",
            "time_elapsed": 170388,
            "key_press": -1,
            "trial_index": 0,
            "trial_index_global": 176
        },
        {
            "rt": 594,
            "trial_type": "single-stim",
            "stimulus": "<div class = centerbox><p class = stroop-stim style = \"color:red\">GREEN</p></div>",
            "internal_chunk_id": "0-0.3-18",
            "time_elapsed": 171136,
            "key_press": 82,
            "type": "stroop_frequent",
            "trial_index": 0,
            "trial_index_global": 177
        },
        {
            "rt": -1,
            "trial_type": "single-stim",
            "stimulus": "",
            "internal_chunk_id": "0-0.3-18",
            "time_elapsed": 171399,
            "key_press": -1,
            "trial_index": 0,
            "trial_index_global": 178
        },
        {
            "rt": -1,
            "trial_type": "single-stim",
            "stimulus": "<div class = centerbox><p class = 'stroop-stim'>+</p></div>",
            "internal_chunk_id": "0-0.3-19",
            "time_elapsed": 171650,
            "key_press": -1,
            "trial_index": 0,
            "trial_index_global": 179
        },
        {
            "rt": 791,
            "trial_type": "single-stim",
            "stimulus": "<div class = centerbox><p class = stroop-stim style = \"color:blue\">RED</p></div>",
            "internal_chunk_id": "0-0.3-19",
            "time_elapsed": 172601,
            "key_press": 66,
            "type": "stroop_frequent",
            "trial_index": 0,
            "trial_index_global": 180
        },
        {
            "rt": -1,
            "trial_type": "single-stim",
            "stimulus": "",
            "internal_chunk_id": "0-0.3-19",
            "time_elapsed": 172862,
            "key_press": -1,
            "trial_index": 0,
            "trial_index_global": 181
        },
        {
            "rt": -1,
            "trial_type": "single-stim",
            "stimulus": "<div class = centerbox><p class = 'stroop-stim'>+</p></div>",
            "internal_chunk_id": "0-0.3-20",
            "time_elapsed": 173112,
            "key_press": -1,
            "trial_index": 0,
            "trial_index_global": 182
        },
        {
            "rt": 584,
            "trial_type": "single-stim",
            "stimulus": "<div class = centerbox><p class = stroop-stim style = \"color:red\">RED</p></div>",
            "internal_chunk_id": "0-0.3-20",
            "time_elapsed": 173845,
            "key_press": 82,
            "type": "stroop_frequent",
            "trial_index": 0,
            "trial_index_global": 183
        },
        {
            "rt": -1,
            "trial_type": "single-stim",
            "stimulus": "",
            "internal_chunk_id": "0-0.3-20",
            "time_elapsed": 174103,
            "key_press": -1,
            "trial_index": 0,
            "trial_index_global": 184
        },
        {
            "rt": -1,
            "trial_type": "single-stim",
            "stimulus": "<div class = centerbox><p class = 'stroop-stim'>+</p></div>",
            "internal_chunk_id": "0-0.3-21",
            "time_elapsed": 174353,
            "key_press": -1,
            "trial_index": 0,
            "trial_index_global": 185
        },
        {
            "rt": 449,
            "trial_type": "single-stim",
            "stimulus": "<div class = centerbox><p class = stroop-stim style = \"color:green\">RED</p></div>",
            "internal_chunk_id": "0-0.3-21",
            "time_elapsed": 176204,
            "key_press": 71,
            "type": "stroop_frequent",
            "trial_index": 0,
            "trial_index_global": 186
        },
        {
            "rt": 3,
            "trial_type": "single-stim",
            "stimulus": "",
            "internal_chunk_id": "0-0.3-21",
            "time_elapsed": 176466,
            "key_press": 71,
            "trial_index": 0,
            "trial_index_global": 187
        },
        {
            "rt": -1,
            "trial_type": "single-stim",
            "stimulus": "<div class = centerbox><p class = 'stroop-stim'>+</p></div>",
            "internal_chunk_id": "0-0.3-22",
            "time_elapsed": 176717,
            "key_press": -1,
            "trial_index": 0,
            "trial_index_global": 188
        },
        {
            "rt": 910,
            "trial_type": "single-stim",
            "stimulus": "<div class = centerbox><p class = stroop-stim style = \"color:blue\">RED</p></div>",
            "internal_chunk_id": "0-0.3-22",
            "time_elapsed": 177805,
            "key_press": 66,
            "type": "stroop_frequent",
            "trial_index": 0,
            "trial_index_global": 189
        },
        {
            "rt": -1,
            "trial_type": "single-stim",
            "stimulus": "",
            "internal_chunk_id": "0-0.3-22",
            "time_elapsed": 178069,
            "key_press": -1,
            "trial_index": 0,
            "trial_index_global": 190
        },
        {
            "rt": -1,
            "trial_type": "single-stim",
            "stimulus": "<div class = centerbox><p class = 'stroop-stim'>+</p></div>",
            "internal_chunk_id": "0-0.3-23",
            "time_elapsed": 178320,
            "key_press": -1,
            "trial_index": 0,
            "trial_index_global": 191
        },
        {
            "rt": 524,
            "trial_type": "single-stim",
            "stimulus": "<div class = centerbox><p class = stroop-stim style = \"color:blue\">RED</p></div>",
            "internal_chunk_id": "0-0.3-23",
            "time_elapsed": 179014,
            "key_press": 66,
            "type": "stroop_frequent",
            "trial_index": 0,
            "trial_index_global": 192
        },
        {
            "rt": -1,
            "trial_type": "single-stim",
            "stimulus": "",
            "internal_chunk_id": "0-0.3-23",
            "time_elapsed": 179271,
            "key_press": -1,
            "trial_index": 0,
            "trial_index_global": 193
        },
        {
            "rt": -1,
            "trial_type": "single-stim",
            "stimulus": "<div class = centerbox><p class = 'stroop-stim'>+</p></div>",
            "internal_chunk_id": "0-0.3-24",
            "time_elapsed": 179521,
            "key_press": -1,
            "trial_index": 0,
            "trial_index_global": 194
        },
        {
            "rt": 1618,
            "trial_type": "single-stim",
            "stimulus": "<div class = centerbox><p class = stroop-stim style = \"color:green\">BLUE</p></div>",
            "internal_chunk_id": "0-0.3-24",
            "time_elapsed": 181293,
            "key_press": 71,
            "type": "stroop_frequent",
            "trial_index": 0,
            "trial_index_global": 195
        },
        {
            "rt": -1,
            "trial_type": "single-stim",
            "stimulus": "",
            "internal_chunk_id": "0-0.3-24",
            "time_elapsed": 181554,
            "key_press": -1,
            "trial_index": 0,
            "trial_index_global": 196
        },
        {
            "rt": -1,
            "trial_type": "single-stim",
            "stimulus": "<div class = centerbox><p class = 'stroop-stim'>+</p></div>",
            "internal_chunk_id": "0-0.3-25",
            "time_elapsed": 181804,
            "key_press": -1,
            "trial_index": 0,
            "trial_index_global": 197
        },
        {
            "rt": 599,
            "trial_type": "single-stim",
            "stimulus": "<div class = centerbox><p class = stroop-stim style = \"color:green\">BLUE</p></div>",
            "internal_chunk_id": "0-0.3-25",
            "time_elapsed": 182539,
            "key_press": 71,
            "type": "stroop_frequent",
            "trial_index": 0,
            "trial_index_global": 198
        },
        {
            "rt": -1,
            "trial_type": "single-stim",
            "stimulus": "",
            "internal_chunk_id": "0-0.3-25",
            "time_elapsed": 182796,
            "key_press": -1,
            "trial_index": 0,
            "trial_index_global": 199
        },
        {
            "rt": -1,
            "trial_type": "single-stim",
            "stimulus": "<div class = centerbox><p class = 'stroop-stim'>+</p></div>",
            "internal_chunk_id": "0-0.3-26",
            "time_elapsed": 183066,
            "key_press": -1,
            "trial_index": 0,
            "trial_index_global": 200
        },
        {
            "rt": 505,
            "trial_type": "single-stim",
            "stimulus": "<div class = centerbox><p class = stroop-stim style = \"color:red\">GREEN</p></div>",
            "internal_chunk_id": "0-0.3-26",
            "time_elapsed": 183698,
            "key_press": 82,
            "type": "stroop_frequent",
            "trial_index": 0,
            "trial_index_global": 201
        },
        {
            "rt": -1,
            "trial_type": "single-stim",
            "stimulus": "",
            "internal_chunk_id": "0-0.3-26",
            "time_elapsed": 183957,
            "key_press": -1,
            "trial_index": 0,
            "trial_index_global": 202
        },
        {
            "rt": -1,
            "trial_type": "single-stim",
            "stimulus": "<div class = centerbox><p class = 'stroop-stim'>+</p></div>",
            "internal_chunk_id": "0-0.3-27",
            "time_elapsed": 184208,
            "key_press": -1,
            "trial_index": 0,
            "trial_index_global": 203
        },
        {
            "rt": 380,
            "trial_type": "single-stim",
            "stimulus": "<div class = centerbox><p class = stroop-stim style = \"color:blue\">GREEN</p></div>",
            "internal_chunk_id": "0-0.3-27",
            "time_elapsed": 184718,
            "key_press": 66,
            "type": "stroop_frequent",
            "trial_index": 0,
            "trial_index_global": 204
        },
        {
            "rt": -1,
            "trial_type": "single-stim",
            "stimulus": "",
            "internal_chunk_id": "0-0.3-27",
            "time_elapsed": 184979,
            "key_press": -1,
            "trial_index": 0,
            "trial_index_global": 205
        },
        {
            "rt": -1,
            "trial_type": "single-stim",
            "stimulus": "<div class = centerbox><p class = 'stroop-stim'>+</p></div>",
            "internal_chunk_id": "0-0.3-28",
            "time_elapsed": 185229,
            "key_press": -1,
            "trial_index": 0,
            "trial_index_global": 206
        },
        {
            "rt": 356,
            "trial_type": "single-stim",
            "stimulus": "<div class = centerbox><p class = stroop-stim style = \"color:blue\">GREEN</p></div>",
            "internal_chunk_id": "0-0.3-28",
            "time_elapsed": 185709,
            "key_press": 66,
            "type": "stroop_frequent",
            "trial_index": 0,
            "trial_index_global": 207
        },
        {
            "rt": -1,
            "trial_type": "single-stim",
            "stimulus": "",
            "internal_chunk_id": "0-0.3-28",
            "time_elapsed": 185970,
            "key_press": -1,
            "trial_index": 0,
            "trial_index_global": 208
        },
        {
            "rt": -1,
            "trial_type": "single-stim",
            "stimulus": "<div class = centerbox><p class = 'stroop-stim'>+</p></div>",
            "internal_chunk_id": "0-0.3-29",
            "time_elapsed": 186251,
            "key_press": -1,
            "trial_index": 0,
            "trial_index_global": 209
        },
        {
            "rt": 622,
            "trial_type": "single-stim",
            "stimulus": "<div class = centerbox><p class = stroop-stim style = \"color:green\">RED</p></div>",
            "internal_chunk_id": "0-0.3-29",
            "time_elapsed": 187018,
            "key_press": 71,
            "type": "stroop_frequent",
            "trial_index": 0,
            "trial_index_global": 210
        },
        {
            "rt": -1,
            "trial_type": "single-stim",
            "stimulus": "",
            "internal_chunk_id": "0-0.3-29",
            "time_elapsed": 187282,
            "key_press": -1,
            "trial_index": 0,
            "trial_index_global": 211
        },
        {
            "rt": -1,
            "trial_type": "single-stim",
            "stimulus": "<div class = centerbox><p class = 'stroop-stim'>+</p></div>",
            "internal_chunk_id": "0-0.3-30",
            "time_elapsed": 187562,
            "key_press": -1,
            "trial_index": 0,
            "trial_index_global": 212
        },
        {
            "rt": 428,
            "trial_type": "single-stim",
            "stimulus": "<div class = centerbox><p class = stroop-stim style = \"color:blue\">RED</p></div>",
            "internal_chunk_id": "0-0.3-30",
            "time_elapsed": 188098,
            "key_press": 71,
            "type": "stroop_frequent",
            "trial_index": 0,
            "trial_index_global": 213
        },
        {
            "rt": -1,
            "trial_type": "single-stim",
            "stimulus": "",
            "internal_chunk_id": "0-0.3-30",
            "time_elapsed": 188363,
            "key_press": -1,
            "trial_index": 0,
            "trial_index_global": 214
        },
        {
            "rt": -1,
            "trial_type": "single-stim",
            "stimulus": "<div class = centerbox><p class = 'stroop-stim'>+</p></div>",
            "internal_chunk_id": "0-0.3-31",
            "time_elapsed": 188634,
            "key_press": -1,
            "trial_index": 0,
            "trial_index_global": 215
        },
        {
            "rt": 918,
            "trial_type": "single-stim",
            "stimulus": "<div class = centerbox><p class = stroop-stim style = \"color:green\">BLUE</p></div>",
            "internal_chunk_id": "0-0.3-31",
            "time_elapsed": 189688,
            "key_press": 71,
            "type": "stroop_frequent",
            "trial_index": 0,
            "trial_index_global": 216
        },
        {
            "rt": -1,
            "trial_type": "single-stim",
            "stimulus": "",
            "internal_chunk_id": "0-0.3-31",
            "time_elapsed": 189946,
            "key_press": -1,
            "trial_index": 0,
            "trial_index_global": 217
        },
        {
            "rt": -1,
            "trial_type": "single-stim",
            "stimulus": "<div class = centerbox><p class = 'stroop-stim'>+</p></div>",
            "internal_chunk_id": "0-0.3-32",
            "time_elapsed": 190216,
            "key_press": -1,
            "trial_index": 0,
            "trial_index_global": 218
        },
        {
            "rt": 532,
            "trial_type": "single-stim",
            "stimulus": "<div class = centerbox><p class = stroop-stim style = \"color:green\">BLUE</p></div>",
            "internal_chunk_id": "0-0.3-32",
            "time_elapsed": 190900,
            "key_press": 71,
            "type": "stroop_frequent",
            "trial_index": 0,
            "trial_index_global": 219
        },
        {
            "rt": -1,
            "trial_type": "single-stim",
            "stimulus": "",
            "internal_chunk_id": "0-0.3-32",
            "time_elapsed": 191158,
            "key_press": -1,
            "trial_index": 0,
            "trial_index_global": 220
        },
        {
            "rt": -1,
            "trial_type": "single-stim",
            "stimulus": "<div class = centerbox><p class = 'stroop-stim'>+</p></div>",
            "internal_chunk_id": "0-0.3-33",
            "time_elapsed": 191418,
            "key_press": -1,
            "trial_index": 0,
            "trial_index_global": 221
        },
        {
            "rt": 361,
            "trial_type": "single-stim",
            "stimulus": "<div class = centerbox><p class = stroop-stim style = \"color:blue\">GREEN</p></div>",
            "internal_chunk_id": "0-0.3-33",
            "time_elapsed": 191917,
            "key_press": 66,
            "type": "stroop_frequent",
            "trial_index": 0,
            "trial_index_global": 222
        },
        {
            "rt": -1,
            "trial_type": "single-stim",
            "stimulus": "",
            "internal_chunk_id": "0-0.3-33",
            "time_elapsed": 192179,
            "key_press": -1,
            "trial_index": 0,
            "trial_index_global": 223
        },
        {
            "rt": -1,
            "trial_type": "single-stim",
            "stimulus": "<div class = centerbox><p class = 'stroop-stim'>+</p></div>",
            "internal_chunk_id": "0-0.3-34",
            "time_elapsed": 192440,
            "key_press": -1,
            "trial_index": 0,
            "trial_index_global": 224
        },
        {
            "rt": 999,
            "trial_type": "single-stim",
            "stimulus": "<div class = centerbox><p class = stroop-stim style = \"color:green\">RED</p></div>",
            "internal_chunk_id": "0-0.3-34",
            "time_elapsed": 193590,
            "key_press": 82,
            "type": "stroop_frequent",
            "trial_index": 0,
            "trial_index_global": 225
        },
        {
            "rt": -1,
            "trial_type": "single-stim",
            "stimulus": "",
            "internal_chunk_id": "0-0.3-34",
            "time_elapsed": 193852,
            "key_press": -1,
            "trial_index": 0,
            "trial_index_global": 226
        },
        {
            "rt": -1,
            "trial_type": "single-stim",
            "stimulus": "<div class = centerbox><p class = 'stroop-stim'>+</p></div>",
            "internal_chunk_id": "0-0.3-35",
            "time_elapsed": 194112,
            "key_press": -1,
            "trial_index": 0,
            "trial_index_global": 227
        },
        {
            "rt": 959,
            "trial_type": "single-stim",
            "stimulus": "<div class = centerbox><p class = stroop-stim style = \"color:blue\">GREEN</p></div>",
            "internal_chunk_id": "0-0.3-35",
            "time_elapsed": 195234,
            "key_press": 66,
            "type": "stroop_frequent",
            "trial_index": 0,
            "trial_index_global": 228
        },
        {
            "rt": -1,
            "trial_type": "single-stim",
            "stimulus": "",
            "internal_chunk_id": "0-0.3-35",
            "time_elapsed": 195494,
            "key_press": -1,
            "trial_index": 0,
            "trial_index_global": 229
        },
        {
            "rt": -1,
            "trial_type": "single-stim",
            "stimulus": "<div class = centerbox><p class = 'stroop-stim'>+</p></div>",
            "internal_chunk_id": "0-0.3-36",
            "time_elapsed": 195774,
            "key_press": -1,
            "trial_index": 0,
            "trial_index_global": 230
        },
        {
            "rt": 606,
            "trial_type": "single-stim",
            "stimulus": "<div class = centerbox><p class = stroop-stim style = \"color:red\">BLUE</p></div>",
            "internal_chunk_id": "0-0.3-36",
            "time_elapsed": 196531,
            "key_press": 82,
            "type": "stroop_frequent",
            "trial_index": 0,
            "trial_index_global": 231
        },
        {
            "rt": -1,
            "trial_type": "single-stim",
            "stimulus": "",
            "internal_chunk_id": "0-0.3-36",
            "time_elapsed": 196796,
            "key_press": -1,
            "trial_index": 0,
            "trial_index_global": 232
        },
        {
            "rt": -1,
            "trial_type": "single-stim",
            "stimulus": "<div class = centerbox><p class = 'stroop-stim'>+</p></div>",
            "internal_chunk_id": "0-0.3-37",
            "time_elapsed": 197056,
            "key_press": -1,
            "trial_index": 0,
            "trial_index_global": 233
        },
        {
            "rt": 561,
            "trial_type": "single-stim",
            "stimulus": "<div class = centerbox><p class = stroop-stim style = \"color:blue\">GREEN</p></div>",
            "internal_chunk_id": "0-0.3-37",
            "time_elapsed": 197763,
            "key_press": 66,
            "type": "stroop_frequent",
            "trial_index": 0,
            "trial_index_global": 234
        },
        {
            "rt": -1,
            "trial_type": "single-stim",
            "stimulus": "",
            "internal_chunk_id": "0-0.3-37",
            "time_elapsed": 198028,
            "key_press": -1,
            "trial_index": 0,
            "trial_index_global": 235
        },
        {
            "rt": -1,
            "trial_type": "single-stim",
            "stimulus": "<div class = centerbox><p class = 'stroop-stim'>+</p></div>",
            "internal_chunk_id": "0-0.3-38",
            "time_elapsed": 198308,
            "key_press": -1,
            "trial_index": 0,
            "trial_index_global": 236
        },
        {
            "rt": 548,
            "trial_type": "single-stim",
            "stimulus": "<div class = centerbox><p class = stroop-stim style = \"color:blue\">GREEN</p></div>",
            "internal_chunk_id": "0-0.3-38",
            "time_elapsed": 198989,
            "key_press": 66,
            "type": "stroop_frequent",
            "trial_index": 0,
            "trial_index_global": 237
        },
        {
            "rt": -1,
            "trial_type": "single-stim",
            "stimulus": "",
            "internal_chunk_id": "0-0.3-38",
            "time_elapsed": 199249,
            "key_press": -1,
            "trial_index": 0,
            "trial_index_global": 238
        },
        {
            "rt": -1,
            "trial_type": "single-stim",
            "stimulus": "<div class = centerbox><p class = 'stroop-stim'>+</p></div>",
            "internal_chunk_id": "0-0.3-39",
            "time_elapsed": 199530,
            "key_press": -1,
            "trial_index": 0,
            "trial_index_global": 239
        },
        {
            "rt": 555,
            "trial_type": "single-stim",
            "stimulus": "<div class = centerbox><p class = stroop-stim style = \"color:red\">GREEN</p></div>",
            "internal_chunk_id": "0-0.3-39",
            "time_elapsed": 200230,
            "key_press": 82,
            "type": "stroop_frequent",
            "trial_index": 0,
            "trial_index_global": 240
        },
        {
            "rt": -1,
            "trial_type": "single-stim",
            "stimulus": "",
            "internal_chunk_id": "0-0.3-39",
            "time_elapsed": 200491,
            "key_press": -1,
            "trial_index": 0,
            "trial_index_global": 241
        },
        {
            "rt": -1,
            "trial_type": "single-stim",
            "stimulus": "<div class = centerbox><p class = 'stroop-stim'>+</p></div>",
            "internal_chunk_id": "0-0.3-40",
            "time_elapsed": 200751,
            "key_press": -1,
            "trial_index": 0,
            "trial_index_global": 242
        },
        {
            "rt": 516,
            "trial_type": "single-stim",
            "stimulus": "<div class = centerbox><p class = stroop-stim style = \"color:red\">RED</p></div>",
            "internal_chunk_id": "0-0.3-40",
            "time_elapsed": 201409,
            "key_press": 82,
            "type": "stroop_frequent",
            "trial_index": 0,
            "trial_index_global": 243
        },
        {
            "rt": -1,
            "trial_type": "single-stim",
            "stimulus": "",
            "internal_chunk_id": "0-0.3-40",
            "time_elapsed": 201673,
            "key_press": -1,
            "trial_index": 0,
            "trial_index_global": 244
        },
        {
            "rt": -1,
            "trial_type": "single-stim",
            "stimulus": "<div class = centerbox><p class = 'stroop-stim'>+</p></div>",
            "internal_chunk_id": "0-0.3-41",
            "time_elapsed": 201933,
            "key_press": -1,
            "trial_index": 0,
            "trial_index_global": 245
        },
        {
            "rt": 630,
            "trial_type": "single-stim",
            "stimulus": "<div class = centerbox><p class = stroop-stim style = \"color:green\">RED</p></div>",
            "internal_chunk_id": "0-0.3-41",
            "time_elapsed": 202751,
            "key_press": 71,
            "type": "stroop_frequent",
            "trial_index": 0,
            "trial_index_global": 246
        },
        {
            "rt": -1,
            "trial_type": "single-stim",
            "stimulus": "",
            "internal_chunk_id": "0-0.3-41",
            "time_elapsed": 203015,
            "key_press": -1,
            "trial_index": 0,
            "trial_index_global": 247
        },
        {
            "rt": -1,
            "trial_type": "single-stim",
            "stimulus": "<div class = centerbox><p class = 'stroop-stim'>+</p></div>",
            "internal_chunk_id": "0-0.3-42",
            "time_elapsed": 203285,
            "key_press": -1,
            "trial_index": 0,
            "trial_index_global": 248
        },
        {
            "rt": 400,
            "trial_type": "single-stim",
            "stimulus": "<div class = centerbox><p class = stroop-stim style = \"color:green\">RED</p></div>",
            "internal_chunk_id": "0-0.3-42",
            "time_elapsed": 203833,
            "key_press": 71,
            "type": "stroop_frequent",
            "trial_index": 0,
            "trial_index_global": 249
        },
        {
            "rt": -1,
            "trial_type": "single-stim",
            "stimulus": "",
            "internal_chunk_id": "0-0.3-42",
            "time_elapsed": 204096,
            "key_press": -1,
            "trial_index": 0,
            "trial_index_global": 250
        },
        {
            "rt": -1,
            "trial_type": "single-stim",
            "stimulus": "<div class = centerbox><p class = 'stroop-stim'>+</p></div>",
            "internal_chunk_id": "0-0.3-43",
            "time_elapsed": 204507,
            "key_press": -1,
            "trial_index": 0,
            "trial_index_global": 251
        },
        {
            "rt": 428,
            "trial_type": "single-stim",
            "stimulus": "<div class = centerbox><p class = stroop-stim style = \"color:blue\">RED</p></div>",
            "internal_chunk_id": "0-0.3-43",
            "time_elapsed": 205092,
            "key_press": 66,
            "type": "stroop_frequent",
            "trial_index": 0,
            "trial_index_global": 252
        },
        {
            "rt": -1,
            "trial_type": "single-stim",
            "stimulus": "",
            "internal_chunk_id": "0-0.3-43",
            "time_elapsed": 205349,
            "key_press": -1,
            "trial_index": 0,
            "trial_index_global": 253
        },
        {
            "rt": -1,
            "trial_type": "single-stim",
            "stimulus": "<div class = centerbox><p class = 'stroop-stim'>+</p></div>",
            "internal_chunk_id": "0-0.3-44",
            "time_elapsed": 205608,
            "key_press": -1,
            "trial_index": 0,
            "trial_index_global": 254
        },
        {
            "rt": 590,
            "trial_type": "single-stim",
            "stimulus": "<div class = centerbox><p class = stroop-stim style = \"color:green\">GREEN</p></div>",
            "internal_chunk_id": "0-0.3-44",
            "time_elapsed": 206362,
            "key_press": 71,
            "type": "stroop_frequent",
            "trial_index": 0,
            "trial_index_global": 255
        },
        {
            "rt": -1,
            "trial_type": "single-stim",
            "stimulus": "",
            "internal_chunk_id": "0-0.3-44",
            "time_elapsed": 206620,
            "key_press": -1,
            "trial_index": 0,
            "trial_index_global": 256
        },
        {
            "rt": -1,
            "trial_type": "single-stim",
            "stimulus": "<div class = centerbox><p class = 'stroop-stim'>+</p></div>",
            "internal_chunk_id": "0-0.3-45",
            "time_elapsed": 206880,
            "key_press": -1,
            "trial_index": 0,
            "trial_index_global": 257
        },
        {
            "rt": 667,
            "trial_type": "single-stim",
            "stimulus": "<div class = centerbox><p class = stroop-stim style = \"color:red\">GREEN</p></div>",
            "internal_chunk_id": "0-0.3-45",
            "time_elapsed": 207697,
            "key_press": 82,
            "type": "stroop_frequent",
            "trial_index": 0,
            "trial_index_global": 258
        },
        {
            "rt": -1,
            "trial_type": "single-stim",
            "stimulus": "",
            "internal_chunk_id": "0-0.3-45",
            "time_elapsed": 207962,
            "key_press": -1,
            "trial_index": 0,
            "trial_index_global": 259
        },
        {
            "rt": -1,
            "trial_type": "single-stim",
            "stimulus": "<div class = centerbox><p class = 'stroop-stim'>+</p></div>",
            "internal_chunk_id": "0-0.3-46",
            "time_elapsed": 208223,
            "key_press": -1,
            "trial_index": 0,
            "trial_index_global": 260
        },
        {
            "rt": 541,
            "trial_type": "single-stim",
            "stimulus": "<div class = centerbox><p class = stroop-stim style = \"color:red\">GREEN</p></div>",
            "internal_chunk_id": "0-0.3-46",
            "time_elapsed": 208927,
            "key_press": 82,
            "type": "stroop_frequent",
            "trial_index": 0,
            "trial_index_global": 261
        },
        {
            "rt": -1,
            "trial_type": "single-stim",
            "stimulus": "",
            "internal_chunk_id": "0-0.3-46",
            "time_elapsed": 209184,
            "key_press": -1,
            "trial_index": 0,
            "trial_index_global": 262
        },
        {
            "rt": -1,
            "trial_type": "single-stim",
            "stimulus": "<div class = centerbox><p class = 'stroop-stim'>+</p></div>",
            "internal_chunk_id": "0-0.3-47",
            "time_elapsed": 209464,
            "key_press": -1,
            "trial_index": 0,
            "trial_index_global": 263
        },
        {
            "rt": 514,
            "trial_type": "single-stim",
            "stimulus": "<div class = centerbox><p class = stroop-stim style = \"color:red\">GREEN</p></div>",
            "internal_chunk_id": "0-0.3-47",
            "time_elapsed": 210118,
            "key_press": 82,
            "type": "stroop_frequent",
            "trial_index": 0,
            "trial_index_global": 264
        },
        {
            "rt": -1,
            "trial_type": "single-stim",
            "stimulus": "",
            "internal_chunk_id": "0-0.3-47",
            "time_elapsed": 210375,
            "key_press": -1,
            "trial_index": 0,
            "trial_index_global": 265
        },
        {
            "rt": -1,
            "trial_type": "single-stim",
            "stimulus": "<div class = centerbox><p class = 'stroop-stim'>+</p></div>",
            "internal_chunk_id": "0-0.3-48",
            "time_elapsed": 210656,
            "key_press": -1,
            "trial_index": 0,
            "trial_index_global": 266
        },
        {
            "rt": 481,
            "trial_type": "single-stim",
            "stimulus": "<div class = centerbox><p class = stroop-stim style = \"color:red\">BLUE</p></div>",
            "internal_chunk_id": "0-0.3-48",
            "time_elapsed": 211306,
            "key_press": 82,
            "type": "stroop_frequent",
            "trial_index": 0,
            "trial_index_global": 267
        },
        {
            "rt": -1,
            "trial_type": "single-stim",
            "stimulus": "",
            "internal_chunk_id": "0-0.3-48",
            "time_elapsed": 211567,
            "key_press": -1,
            "trial_index": 0,
            "trial_index_global": 268
        },
        {
            "rt": -1,
            "trial_type": "single-stim",
            "stimulus": "<div class = centerbox><p class = 'stroop-stim'>+</p></div>",
            "internal_chunk_id": "0-0.3-49",
            "time_elapsed": 211867,
            "key_press": -1,
            "trial_index": 0,
            "trial_index_global": 269
        },
        {
            "rt": 378,
            "trial_type": "single-stim",
            "stimulus": "<div class = centerbox><p class = stroop-stim style = \"color:red\">BLUE</p></div>",
            "internal_chunk_id": "0-0.3-49",
            "time_elapsed": 212397,
            "key_press": 82,
            "type": "stroop_frequent",
            "trial_index": 0,
            "trial_index_global": 270
        },
        {
            "rt": -1,
            "trial_type": "single-stim",
            "stimulus": "",
            "internal_chunk_id": "0-0.3-49",
            "time_elapsed": 212659,
            "key_press": -1,
            "trial_index": 0,
            "trial_index_global": 271
        },
        {
            "rt": -1,
            "trial_type": "single-stim",
            "stimulus": "<div class = centerbox><p class = 'stroop-stim'>+</p></div>",
            "internal_chunk_id": "0-0.3-50",
            "time_elapsed": 212929,
            "key_press": -1,
            "trial_index": 0,
            "trial_index_global": 272
        },
        {
            "rt": 578,
            "trial_type": "single-stim",
            "stimulus": "<div class = centerbox><p class = stroop-stim style = \"color:blue\">RED</p></div>",
            "internal_chunk_id": "0-0.3-50",
            "time_elapsed": 213664,
            "key_press": 66,
            "type": "stroop_frequent",
            "trial_index": 0,
            "trial_index_global": 273
        },
        {
            "rt": -1,
            "trial_type": "single-stim",
            "stimulus": "",
            "internal_chunk_id": "0-0.3-50",
            "time_elapsed": 213920,
            "key_press": -1,
            "trial_index": 0,
            "trial_index_global": 274
        },
        {
            "rt": -1,
            "trial_type": "single-stim",
            "stimulus": "<div class = centerbox><p class = 'stroop-stim'>+</p></div>",
            "internal_chunk_id": "0-0.3-51",
            "time_elapsed": 214201,
            "key_press": -1,
            "trial_index": 0,
            "trial_index_global": 275
        },
        {
            "rt": 400,
            "trial_type": "single-stim",
            "stimulus": "<div class = centerbox><p class = stroop-stim style = \"color:blue\">RED</p></div>",
            "internal_chunk_id": "0-0.3-51",
            "time_elapsed": 214738,
            "key_press": 66,
            "type": "stroop_frequent",
            "trial_index": 0,
            "trial_index_global": 276
        },
        {
            "rt": -1,
            "trial_type": "single-stim",
            "stimulus": "",
            "internal_chunk_id": "0-0.3-51",
            "time_elapsed": 215002,
            "key_press": -1,
            "trial_index": 0,
            "trial_index_global": 277
        },
        {
            "rt": -1,
            "trial_type": "single-stim",
            "stimulus": "<div class = centerbox><p class = 'stroop-stim'>+</p></div>",
            "internal_chunk_id": "0-0.3-52",
            "time_elapsed": 215272,
            "key_press": -1,
            "trial_index": 0,
            "trial_index_global": 278
        },
        {
            "rt": 426,
            "trial_type": "single-stim",
            "stimulus": "<div class = centerbox><p class = stroop-stim style = \"color:green\">RED</p></div>",
            "internal_chunk_id": "0-0.3-52",
            "time_elapsed": 215870,
            "key_press": 71,
            "type": "stroop_frequent",
            "trial_index": 0,
            "trial_index_global": 279
        },
        {
            "rt": -1,
            "trial_type": "single-stim",
            "stimulus": "",
            "internal_chunk_id": "0-0.3-52",
            "time_elapsed": 216135,
            "key_press": -1,
            "trial_index": 0,
            "trial_index_global": 280
        },
        {
            "rt": -1,
            "trial_type": "single-stim",
            "stimulus": "<div class = centerbox><p class = 'stroop-stim'>+</p></div>",
            "internal_chunk_id": "0-0.3-53",
            "time_elapsed": 216424,
            "key_press": -1,
            "trial_index": 0,
            "trial_index_global": 281
        },
        {
            "rt": 386,
            "trial_type": "single-stim",
            "stimulus": "<div class = centerbox><p class = stroop-stim style = \"color:green\">GREEN</p></div>",
            "internal_chunk_id": "0-0.3-53",
            "time_elapsed": 216976,
            "key_press": 71,
            "type": "stroop_frequent",
            "trial_index": 0,
            "trial_index_global": 282
        },
        {
            "rt": -1,
            "trial_type": "single-stim",
            "stimulus": "",
            "internal_chunk_id": "0-0.3-53",
            "time_elapsed": 217235,
            "key_press": -1,
            "trial_index": 0,
            "trial_index_global": 283
        },
        {
            "rt": -1,
            "trial_type": "single-stim",
            "stimulus": "<div class = centerbox><p class = 'stroop-stim'>+</p></div>",
            "internal_chunk_id": "0-0.3-54",
            "time_elapsed": 217506,
            "key_press": -1,
            "trial_index": 0,
            "trial_index_global": 284
        },
        {
            "rt": 466,
            "trial_type": "single-stim",
            "stimulus": "<div class = centerbox><p class = stroop-stim style = \"color:blue\">RED</p></div>",
            "internal_chunk_id": "0-0.3-54",
            "time_elapsed": 218117,
            "key_press": 66,
            "type": "stroop_frequent",
            "trial_index": 0,
            "trial_index_global": 285
        },
        {
            "rt": -1,
            "trial_type": "single-stim",
            "stimulus": "",
            "internal_chunk_id": "0-0.3-54",
            "time_elapsed": 218377,
            "key_press": -1,
            "trial_index": 0,
            "trial_index_global": 286
        },
        {
            "rt": -1,
            "trial_type": "single-stim",
            "stimulus": "<div class = centerbox><p class = 'stroop-stim'>+</p></div>",
            "internal_chunk_id": "0-0.3-55",
            "time_elapsed": 218657,
            "key_press": -1,
            "trial_index": 0,
            "trial_index_global": 287
        },
        {
            "rt": 429,
            "trial_type": "single-stim",
            "stimulus": "<div class = centerbox><p class = stroop-stim style = \"color:green\">GREEN</p></div>",
            "internal_chunk_id": "0-0.3-55",
            "time_elapsed": 219246,
            "key_press": 71,
            "type": "stroop_frequent",
            "trial_index": 0,
            "trial_index_global": 288
        },
        {
            "rt": -1,
            "trial_type": "single-stim",
            "stimulus": "",
            "internal_chunk_id": "0-0.3-55",
