{
    "AutoApprovalTime": "2015-03-12T01:34:34Z",
    "AssignmentId": "3GU1KF0O4I1EZ865YOWUG33YD2ZPBU",
    "WorkerId": "A3BBGFC0RG39HK",
    "AcceptTime": "2015-03-10T01:05:09Z",
    "HITId": "363A7XIFV4MJYY0GOJ0W20CPME0VAH",
    "Assignment": "",
    "answer": [
        {
            "rt": 61310,
            "trial_type": "text",
            "internal_chunk_id": "0-0",
            "time_elapsed": 61477,
            "key_press": 13,
            "trial_index": 0,
            "trial_index_global": 0
        },
        {
            "rt": -1,
            "trial_type": "single-stim",
            "stimulus": "<div class = centerbox><p class = 'stroop-stim'>+</p></div>",
            "internal_chunk_id": "0-0.1-0",
            "time_elapsed": 62690,
            "key_press": -1,
            "trial_index": 0,
            "trial_index_global": 1
        },
        {
            "rt": 813,
            "trial_type": "single-stim",
            "stimulus": "<div class = centerbox><p class = stroop-stim style = \"color:red\">RED</p></div>",
            "internal_chunk_id": "0-0.1-0",
            "time_elapsed": 63668,
            "key_press": 82,
            "type": "stroop_practice",
            "trial_index": 0,
            "trial_index_global": 2
        },
        {
            "rt": -1,
            "trial_type": "single-stim",
            "stimulus": "",
            "internal_chunk_id": "0-0.1-0",
            "time_elapsed": 63920,
            "key_press": -1,
            "trial_index": 0,
            "trial_index_global": 3
        },
        {
            "rt": -1,
            "trial_type": "single-stim",
            "stimulus": "<div class = centerbox><p class = stroop-stim>correct</p></div>",
            "internal_chunk_id": "0-0.1-0",
            "time_elapsed": 64424,
            "key_press": -1,
            "trial_index": 0,
            "trial_index_global": 4
        },
        {
            "rt": -1,
            "trial_type": "single-stim",
            "stimulus": "",
            "internal_chunk_id": "0-0.1-0",
            "time_elapsed": 64676,
            "key_press": -1,
            "trial_index": 0,
            "trial_index_global": 5
        },
        {
            "rt": -1,
            "trial_type": "single-stim",
            "stimulus": "<div class = centerbox><p class = 'stroop-stim'>+</p></div>",
            "internal_chunk_id": "0-0.1-1",
            "time_elapsed": 64879,
            "key_press": -1,
            "trial_index": 0,
            "trial_index_global": 6
        },
        {
            "rt": 613,
            "trial_type": "single-stim",
            "stimulus": "<div class = centerbox><p class = stroop-stim style = \"color:blue\">RED</p></div>",
            "internal_chunk_id": "0-0.1-1",
            "time_elapsed": 65570,
            "key_press": 82,
            "type": "stroop_practice",
            "trial_index": 0,
            "trial_index_global": 7
        },
        {
            "rt": -1,
            "trial_type": "single-stim",
            "stimulus": "",
            "internal_chunk_id": "0-0.1-1",
            "time_elapsed": 65822,
            "key_press": -1,
            "trial_index": 0,
            "trial_index_global": 8
        },
        {
            "rt": -1,
            "trial_type": "single-stim",
            "stimulus": "<div class = centerbox><p class = stroop-stim>incorrect</p></div>",
            "internal_chunk_id": "0-0.1-1",
            "time_elapsed": 66324,
            "key_press": -1,
            "trial_index": 0,
            "trial_index_global": 9
        },
        {
            "rt": -1,
            "trial_type": "single-stim",
            "stimulus": "",
            "internal_chunk_id": "0-0.1-1",
            "time_elapsed": 66577,
            "key_press": -1,
            "trial_index": 0,
            "trial_index_global": 10
        },
        {
            "rt": -1,
            "trial_type": "single-stim",
            "stimulus": "<div class = centerbox><p class = 'stroop-stim'>+</p></div>",
            "internal_chunk_id": "0-0.1-2",
            "time_elapsed": 66780,
            "key_press": -1,
            "trial_index": 0,
            "trial_index_global": 11
        },
        {
            "rt": 687,
            "trial_type": "single-stim",
            "stimulus": "<div class = centerbox><p class = stroop-stim style = \"color:blue\">GREEN</p></div>",
            "internal_chunk_id": "0-0.1-2",
            "time_elapsed": 67596,
            "key_press": 66,
            "type": "stroop_practice",
            "trial_index": 0,
            "trial_index_global": 12
        },
        {
            "rt": -1,
            "trial_type": "single-stim",
            "stimulus": "",
            "internal_chunk_id": "0-0.1-2",
            "time_elapsed": 67848,
            "key_press": -1,
            "trial_index": 0,
            "trial_index_global": 13
        },
        {
            "rt": -1,
            "trial_type": "single-stim",
            "stimulus": "<div class = centerbox><p class = stroop-stim>correct</p></div>",
            "internal_chunk_id": "0-0.1-2",
            "time_elapsed": 68350,
            "key_press": -1,
            "trial_index": 0,
            "trial_index_global": 14
        },
        {
            "rt": -1,
            "trial_type": "single-stim",
            "stimulus": "",
            "internal_chunk_id": "0-0.1-2",
            "time_elapsed": 68603,
            "key_press": -1,
            "trial_index": 0,
            "trial_index_global": 15
        },
        {
            "rt": -1,
            "trial_type": "single-stim",
            "stimulus": "<div class = centerbox><p class = 'stroop-stim'>+</p></div>",
            "internal_chunk_id": "0-0.1-3",
            "time_elapsed": 68806,
            "key_press": -1,
            "trial_index": 0,
            "trial_index_global": 16
        },
        {
            "rt": 500,
            "trial_type": "single-stim",
            "stimulus": "<div class = centerbox><p class = stroop-stim style = \"color:blue\">BLUE</p></div>",
            "internal_chunk_id": "0-0.1-3",
            "time_elapsed": 69425,
            "key_press": 66,
            "type": "stroop_practice",
            "trial_index": 0,
            "trial_index_global": 17
        },
        {
            "rt": -1,
            "trial_type": "single-stim",
            "stimulus": "",
            "internal_chunk_id": "0-0.1-3",
            "time_elapsed": 69677,
            "key_press": -1,
            "trial_index": 0,
            "trial_index_global": 18
        },
        {
            "rt": -1,
            "trial_type": "single-stim",
            "stimulus": "<div class = centerbox><p class = stroop-stim>correct</p></div>",
            "internal_chunk_id": "0-0.1-3",
            "time_elapsed": 70179,
            "key_press": -1,
            "trial_index": 0,
            "trial_index_global": 19
        },
        {
            "rt": -1,
            "trial_type": "single-stim",
            "stimulus": "",
            "internal_chunk_id": "0-0.1-3",
            "time_elapsed": 70432,
            "key_press": -1,
            "trial_index": 0,
            "trial_index_global": 20
        },
        {
            "rt": -1,
            "trial_type": "single-stim",
            "stimulus": "<div class = centerbox><p class = 'stroop-stim'>+</p></div>",
            "internal_chunk_id": "0-0.1-4",
            "time_elapsed": 70635,
            "key_press": -1,
            "trial_index": 0,
            "trial_index_global": 21
        },
        {
            "rt": 778,
            "trial_type": "single-stim",
            "stimulus": "<div class = centerbox><p class = stroop-stim style = \"color:red\">BLUE</p></div>",
            "internal_chunk_id": "0-0.1-4",
            "time_elapsed": 71597,
            "key_press": 82,
            "type": "stroop_practice",
            "trial_index": 0,
            "trial_index_global": 22
        },
        {
            "rt": -1,
            "trial_type": "single-stim",
            "stimulus": "",
            "internal_chunk_id": "0-0.1-4",
            "time_elapsed": 71849,
            "key_press": -1,
            "trial_index": 0,
            "trial_index_global": 23
        },
        {
            "rt": -1,
            "trial_type": "single-stim",
            "stimulus": "<div class = centerbox><p class = stroop-stim>correct</p></div>",
            "internal_chunk_id": "0-0.1-4",
            "time_elapsed": 72352,
            "key_press": -1,
            "trial_index": 0,
            "trial_index_global": 24
        },
        {
            "rt": -1,
            "trial_type": "single-stim",
            "stimulus": "",
            "internal_chunk_id": "0-0.1-4",
            "time_elapsed": 72605,
            "key_press": -1,
            "trial_index": 0,
            "trial_index_global": 25
        },
        {
            "rt": -1,
            "trial_type": "single-stim",
            "stimulus": "<div class = centerbox><p class = 'stroop-stim'>+</p></div>",
            "internal_chunk_id": "0-0.1-5",
            "time_elapsed": 72809,
            "key_press": -1,
            "trial_index": 0,
            "trial_index_global": 26
        },
        {
            "rt": 682,
            "trial_type": "single-stim",
            "stimulus": "<div class = centerbox><p class = stroop-stim style = \"color:blue\">BLUE</p></div>",
            "internal_chunk_id": "0-0.1-5",
            "time_elapsed": 73610,
            "key_press": 66,
            "type": "stroop_practice",
            "trial_index": 0,
            "trial_index_global": 27
        },
        {
            "rt": -1,
            "trial_type": "single-stim",
            "stimulus": "",
            "internal_chunk_id": "0-0.1-5",
            "time_elapsed": 73862,
            "key_press": -1,
            "trial_index": 0,
            "trial_index_global": 28
        },
        {
            "rt": -1,
            "trial_type": "single-stim",
            "stimulus": "<div class = centerbox><p class = stroop-stim>correct</p></div>",
            "internal_chunk_id": "0-0.1-5",
            "time_elapsed": 74365,
            "key_press": -1,
            "trial_index": 0,
            "trial_index_global": 29
        },
        {
            "rt": -1,
            "trial_type": "single-stim",
            "stimulus": "",
            "internal_chunk_id": "0-0.1-5",
            "time_elapsed": 74618,
            "key_press": -1,
            "trial_index": 0,
            "trial_index_global": 30
        },
        {
            "rt": -1,
            "trial_type": "single-stim",
            "stimulus": "<div class = centerbox><p class = 'stroop-stim'>+</p></div>",
            "internal_chunk_id": "0-0.1-6",
            "time_elapsed": 74821,
            "key_press": -1,
            "trial_index": 0,
            "trial_index_global": 31
        },
        {
            "rt": 490,
            "trial_type": "single-stim",
            "stimulus": "<div class = centerbox><p class = stroop-stim style = \"color:green\">BLUE</p></div>",
            "internal_chunk_id": "0-0.1-6",
            "time_elapsed": 75446,
            "key_press": 71,
            "type": "stroop_practice",
            "trial_index": 0,
            "trial_index_global": 32
        },
        {
            "rt": -1,
            "trial_type": "single-stim",
            "stimulus": "",
            "internal_chunk_id": "0-0.1-6",
            "time_elapsed": 75700,
            "key_press": -1,
            "trial_index": 0,
            "trial_index_global": 33
        },
        {
            "rt": -1,
            "trial_type": "single-stim",
            "stimulus": "<div class = centerbox><p class = stroop-stim>correct</p></div>",
            "internal_chunk_id": "0-0.1-6",
            "time_elapsed": 76203,
            "key_press": -1,
            "trial_index": 0,
            "trial_index_global": 34
        },
        {
            "rt": -1,
            "trial_type": "single-stim",
            "stimulus": "",
            "internal_chunk_id": "0-0.1-6",
            "time_elapsed": 76455,
            "key_press": -1,
            "trial_index": 0,
            "trial_index_global": 35
        },
        {
            "rt": -1,
            "trial_type": "single-stim",
            "stimulus": "<div class = centerbox><p class = 'stroop-stim'>+</p></div>",
            "internal_chunk_id": "0-0.1-7",
            "time_elapsed": 76659,
            "key_press": -1,
            "trial_index": 0,
            "trial_index_global": 36
        },
        {
            "rt": 524,
            "trial_type": "single-stim",
            "stimulus": "<div class = centerbox><p class = stroop-stim style = \"color:blue\">BLUE</p></div>",
            "internal_chunk_id": "0-0.1-7",
            "time_elapsed": 77332,
            "key_press": 66,
            "type": "stroop_practice",
            "trial_index": 0,
            "trial_index_global": 37
        },
        {
            "rt": -1,
            "trial_type": "single-stim",
            "stimulus": "",
            "internal_chunk_id": "0-0.1-7",
            "time_elapsed": 77585,
            "key_press": -1,
            "trial_index": 0,
            "trial_index_global": 38
        },
        {
            "rt": -1,
            "trial_type": "single-stim",
            "stimulus": "<div class = centerbox><p class = stroop-stim>correct</p></div>",
            "internal_chunk_id": "0-0.1-7",
            "time_elapsed": 78088,
            "key_press": -1,
            "trial_index": 0,
            "trial_index_global": 39
        },
        {
            "rt": -1,
            "trial_type": "single-stim",
            "stimulus": "",
            "internal_chunk_id": "0-0.1-7",
            "time_elapsed": 78340,
            "key_press": -1,
            "trial_index": 0,
            "trial_index_global": 40
        },
        {
            "rt": -1,
            "trial_type": "single-stim",
            "stimulus": "<div class = centerbox><p class = 'stroop-stim'>+</p></div>",
            "internal_chunk_id": "0-0.1-8",
            "time_elapsed": 78543,
            "key_press": -1,
            "trial_index": 0,
            "trial_index_global": 41
        },
        {
            "rt": 533,
            "trial_type": "single-stim",
            "stimulus": "<div class = centerbox><p class = stroop-stim style = \"color:green\">GREEN</p></div>",
            "internal_chunk_id": "0-0.1-8",
            "time_elapsed": 79189,
            "key_press": 71,
            "type": "stroop_practice",
            "trial_index": 0,
            "trial_index_global": 42
        },
        {
            "rt": -1,
            "trial_type": "single-stim",
            "stimulus": "",
            "internal_chunk_id": "0-0.1-8",
            "time_elapsed": 79441,
            "key_press": -1,
            "trial_index": 0,
            "trial_index_global": 43
        },
        {
            "rt": -1,
            "trial_type": "single-stim",
            "stimulus": "<div class = centerbox><p class = stroop-stim>correct</p></div>",
            "internal_chunk_id": "0-0.1-8",
            "time_elapsed": 79945,
            "key_press": -1,
            "trial_index": 0,
            "trial_index_global": 44
        },
        {
            "rt": -1,
            "trial_type": "single-stim",
            "stimulus": "",
            "internal_chunk_id": "0-0.1-8",
            "time_elapsed": 80197,
            "key_press": -1,
            "trial_index": 0,
            "trial_index_global": 45
        },
        {
            "rt": -1,
            "trial_type": "single-stim",
            "stimulus": "<div class = centerbox><p class = 'stroop-stim'>+</p></div>",
            "internal_chunk_id": "0-0.1-9",
            "time_elapsed": 80400,
            "key_press": -1,
            "trial_index": 0,
            "trial_index_global": 46
        },
        {
            "rt": 668,
            "trial_type": "single-stim",
            "stimulus": "<div class = centerbox><p class = stroop-stim style = \"color:blue\">BLUE</p></div>",
            "internal_chunk_id": "0-0.1-9",
            "time_elapsed": 81118,
            "key_press": 66,
            "type": "stroop_practice",
            "trial_index": 0,
            "trial_index_global": 47
        },
        {
            "rt": 67,
            "trial_type": "single-stim",
            "stimulus": "",
            "internal_chunk_id": "0-0.1-9",
            "time_elapsed": 81370,
            "key_press": 66,
            "trial_index": 0,
            "trial_index_global": 48
        },
        {
            "rt": -1,
            "trial_type": "single-stim",
            "stimulus": "<div class = centerbox><p class = stroop-stim>correct</p></div>",
            "internal_chunk_id": "0-0.1-9",
            "time_elapsed": 81874,
            "key_press": -1,
            "trial_index": 0,
            "trial_index_global": 49
        },
        {
            "rt": -1,
            "trial_type": "single-stim",
            "stimulus": "",
            "internal_chunk_id": "0-0.1-9",
            "time_elapsed": 82126,
            "key_press": -1,
            "trial_index": 0,
            "trial_index_global": 50
        },
        {
            "rt": -1,
            "trial_type": "single-stim",
            "stimulus": "<div class = centerbox><p class = 'stroop-stim'>+</p></div>",
            "internal_chunk_id": "0-0.1-10",
            "time_elapsed": 82329,
            "key_press": -1,
            "trial_index": 0,
            "trial_index_global": 51
        },
        {
            "rt": 422,
            "trial_type": "single-stim",
            "stimulus": "<div class = centerbox><p class = stroop-stim style = \"color:red\">RED</p></div>",
            "internal_chunk_id": "0-0.1-10",
            "time_elapsed": 82896,
            "key_press": 82,
            "type": "stroop_practice",
            "trial_index": 0,
            "trial_index_global": 52
        },
        {
            "rt": -1,
            "trial_type": "single-stim",
            "stimulus": "",
            "internal_chunk_id": "0-0.1-10",
            "time_elapsed": 83148,
            "key_press": -1,
            "trial_index": 0,
            "trial_index_global": 53
        },
        {
            "rt": -1,
            "trial_type": "single-stim",
            "stimulus": "<div class = centerbox><p class = stroop-stim>correct</p></div>",
            "internal_chunk_id": "0-0.1-10",
            "time_elapsed": 83652,
            "key_press": -1,
            "trial_index": 0,
            "trial_index_global": 54
        },
        {
            "rt": -1,
            "trial_type": "single-stim",
            "stimulus": "",
            "internal_chunk_id": "0-0.1-10",
            "time_elapsed": 83905,
            "key_press": -1,
            "trial_index": 0,
            "trial_index_global": 55
        },
        {
            "rt": -1,
            "trial_type": "single-stim",
            "stimulus": "<div class = centerbox><p class = 'stroop-stim'>+</p></div>",
            "internal_chunk_id": "0-0.1-11",
            "time_elapsed": 84108,
            "key_press": -1,
            "trial_index": 0,
            "trial_index_global": 56
        },
        {
            "rt": 510,
            "trial_type": "single-stim",
            "stimulus": "<div class = centerbox><p class = stroop-stim style = \"color:red\">BLUE</p></div>",
            "internal_chunk_id": "0-0.1-11",
            "time_elapsed": 84767,
            "key_press": 82,
            "type": "stroop_practice",
            "trial_index": 0,
            "trial_index_global": 57
        },
        {
            "rt": -1,
            "trial_type": "single-stim",
            "stimulus": "",
            "internal_chunk_id": "0-0.1-11",
            "time_elapsed": 85019,
            "key_press": -1,
            "trial_index": 0,
            "trial_index_global": 58
        },
        {
            "rt": -1,
            "trial_type": "single-stim",
            "stimulus": "<div class = centerbox><p class = stroop-stim>correct</p></div>",
            "internal_chunk_id": "0-0.1-11",
            "time_elapsed": 85523,
            "key_press": -1,
            "trial_index": 0,
            "trial_index_global": 59
        },
        {
            "rt": -1,
            "trial_type": "single-stim",
            "stimulus": "",
            "internal_chunk_id": "0-0.1-11",
            "time_elapsed": 85775,
            "key_press": -1,
            "trial_index": 0,
            "trial_index_global": 60
        },
        {
            "rt": -1,
            "trial_type": "single-stim",
            "stimulus": "<div class = centerbox><p class = 'stroop-stim'>+</p></div>",
            "internal_chunk_id": "0-0.1-12",
            "time_elapsed": 85981,
            "key_press": -1,
            "trial_index": 0,
            "trial_index_global": 61
        },
        {
            "rt": 740,
            "trial_type": "single-stim",
            "stimulus": "<div class = centerbox><p class = stroop-stim style = \"color:blue\">GREEN</p></div>",
            "internal_chunk_id": "0-0.1-12",
            "time_elapsed": 86864,
            "key_press": 66,
            "type": "stroop_practice",
            "trial_index": 0,
            "trial_index_global": 62
        },
        {
            "rt": -1,
            "trial_type": "single-stim",
            "stimulus": "",
            "internal_chunk_id": "0-0.1-12",
            "time_elapsed": 87116,
            "key_press": -1,
            "trial_index": 0,
            "trial_index_global": 63
        },
        {
            "rt": -1,
            "trial_type": "single-stim",
            "stimulus": "<div class = centerbox><p class = stroop-stim>correct</p></div>",
            "internal_chunk_id": "0-0.1-12",
            "time_elapsed": 87620,
            "key_press": -1,
            "trial_index": 0,
            "trial_index_global": 64
        },
        {
            "rt": -1,
            "trial_type": "single-stim",
            "stimulus": "",
            "internal_chunk_id": "0-0.1-12",
            "time_elapsed": 87872,
            "key_press": -1,
            "trial_index": 0,
            "trial_index_global": 65
        },
        {
            "rt": -1,
            "trial_type": "single-stim",
            "stimulus": "<div class = centerbox><p class = 'stroop-stim'>+</p></div>",
            "internal_chunk_id": "0-0.1-13",
            "time_elapsed": 88079,
            "key_press": -1,
            "trial_index": 0,
            "trial_index_global": 66
        },
        {
            "rt": 578,
            "trial_type": "single-stim",
            "stimulus": "<div class = centerbox><p class = stroop-stim style = \"color:green\">GREEN</p></div>",
            "internal_chunk_id": "0-0.1-13",
            "time_elapsed": 88793,
            "key_press": 71,
            "type": "stroop_practice",
            "trial_index": 0,
            "trial_index_global": 67
        },
        {
            "rt": -1,
            "trial_type": "single-stim",
            "stimulus": "",
            "internal_chunk_id": "0-0.1-13",
            "time_elapsed": 89045,
            "key_press": -1,
            "trial_index": 0,
            "trial_index_global": 68
        },
        {
            "rt": -1,
            "trial_type": "single-stim",
            "stimulus": "<div class = centerbox><p class = stroop-stim>correct</p></div>",
            "internal_chunk_id": "0-0.1-13",
            "time_elapsed": 89550,
            "key_press": -1,
            "trial_index": 0,
            "trial_index_global": 69
        },
        {
            "rt": -1,
            "trial_type": "single-stim",
            "stimulus": "",
            "internal_chunk_id": "0-0.1-13",
            "time_elapsed": 89802,
            "key_press": -1,
            "trial_index": 0,
            "trial_index_global": 70
        },
        {
            "rt": -1,
            "trial_type": "single-stim",
            "stimulus": "<div class = centerbox><p class = 'stroop-stim'>+</p></div>",
            "internal_chunk_id": "0-0.1-14",
            "time_elapsed": 90006,
            "key_press": -1,
            "trial_index": 0,
            "trial_index_global": 71
        },
        {
            "rt": 620,
            "trial_type": "single-stim",
            "stimulus": "<div class = centerbox><p class = stroop-stim style = \"color:green\">BLUE</p></div>",
            "internal_chunk_id": "0-0.1-14",
            "time_elapsed": 90768,
            "key_press": 71,
            "type": "stroop_practice",
            "trial_index": 0,
            "trial_index_global": 72
        },
        {
            "rt": -1,
            "trial_type": "single-stim",
            "stimulus": "",
            "internal_chunk_id": "0-0.1-14",
            "time_elapsed": 91020,
            "key_press": -1,
            "trial_index": 0,
            "trial_index_global": 73
        },
        {
            "rt": -1,
            "trial_type": "single-stim",
            "stimulus": "<div class = centerbox><p class = stroop-stim>correct</p></div>",
            "internal_chunk_id": "0-0.1-14",
            "time_elapsed": 91523,
            "key_press": -1,
            "trial_index": 0,
            "trial_index_global": 74
        },
        {
            "rt": -1,
            "trial_type": "single-stim",
            "stimulus": "",
            "internal_chunk_id": "0-0.1-14",
            "time_elapsed": 91775,
            "key_press": -1,
            "trial_index": 0,
            "trial_index_global": 75
        },
        {
            "rt": -1,
            "trial_type": "single-stim",
            "stimulus": "<div class = centerbox><p class = 'stroop-stim'>+</p></div>",
            "internal_chunk_id": "0-0.1-15",
            "time_elapsed": 91977,
            "key_press": -1,
            "trial_index": 0,
            "trial_index_global": 76
        },
        {
            "rt": 581,
            "trial_type": "single-stim",
            "stimulus": "<div class = centerbox><p class = stroop-stim style = \"color:red\">RED</p></div>",
            "internal_chunk_id": "0-0.1-15",
            "time_elapsed": 92709,
            "key_press": 82,
            "type": "stroop_practice",
            "trial_index": 0,
            "trial_index_global": 77
        },
        {
            "rt": -1,
            "trial_type": "single-stim",
            "stimulus": "",
            "internal_chunk_id": "0-0.1-15",
            "time_elapsed": 92960,
            "key_press": -1,
            "trial_index": 0,
            "trial_index_global": 78
        },
        {
            "rt": -1,
            "trial_type": "single-stim",
            "stimulus": "<div class = centerbox><p class = stroop-stim>correct</p></div>",
            "internal_chunk_id": "0-0.1-15",
            "time_elapsed": 93464,
            "key_press": -1,
            "trial_index": 0,
            "trial_index_global": 79
        },
        {
            "rt": -1,
            "trial_type": "single-stim",
            "stimulus": "",
            "internal_chunk_id": "0-0.1-15",
            "time_elapsed": 93716,
            "key_press": -1,
            "trial_index": 0,
            "trial_index_global": 80
        },
        {
            "rt": -1,
            "trial_type": "single-stim",
            "stimulus": "<div class = centerbox><p class = 'stroop-stim'>+</p></div>",
            "internal_chunk_id": "0-0.1-16",
            "time_elapsed": 93922,
            "key_press": -1,
            "trial_index": 0,
            "trial_index_global": 81
        },
        {
            "rt": 699,
            "trial_type": "single-stim",
            "stimulus": "<div class = centerbox><p class = stroop-stim style = \"color:green\">RED</p></div>",
            "internal_chunk_id": "0-0.1-16",
            "time_elapsed": 94798,
            "key_press": 71,
            "type": "stroop_practice",
            "trial_index": 0,
            "trial_index_global": 82
        },
        {
            "rt": -1,
            "trial_type": "single-stim",
            "stimulus": "",
            "internal_chunk_id": "0-0.1-16",
            "time_elapsed": 95050,
            "key_press": -1,
            "trial_index": 0,
            "trial_index_global": 83
        },
        {
            "rt": -1,
            "trial_type": "single-stim",
            "stimulus": "<div class = centerbox><p class = stroop-stim>correct</p></div>",
            "internal_chunk_id": "0-0.1-16",
            "time_elapsed": 95555,
            "key_press": -1,
            "trial_index": 0,
            "trial_index_global": 84
        },
        {
            "rt": -1,
            "trial_type": "single-stim",
            "stimulus": "",
            "internal_chunk_id": "0-0.1-16",
            "time_elapsed": 95807,
            "key_press": -1,
            "trial_index": 0,
            "trial_index_global": 85
        },
        {
            "rt": -1,
            "trial_type": "single-stim",
            "stimulus": "<div class = centerbox><p class = 'stroop-stim'>+</p></div>",
            "internal_chunk_id": "0-0.1-17",
            "time_elapsed": 96012,
            "key_press": -1,
            "trial_index": 0,
            "trial_index_global": 86
        },
        {
            "rt": 724,
            "trial_type": "single-stim",
            "stimulus": "<div class = centerbox><p class = stroop-stim style = \"color:red\">GREEN</p></div>",
            "internal_chunk_id": "0-0.1-17",
            "time_elapsed": 96891,
            "key_press": 82,
            "type": "stroop_practice",
            "trial_index": 0,
            "trial_index_global": 87
        },
        {
            "rt": -1,
            "trial_type": "single-stim",
            "stimulus": "",
            "internal_chunk_id": "0-0.1-17",
            "time_elapsed": 97143,
            "key_press": -1,
            "trial_index": 0,
            "trial_index_global": 88
        },
        {
            "rt": -1,
            "trial_type": "single-stim",
            "stimulus": "<div class = centerbox><p class = stroop-stim>correct</p></div>",
            "internal_chunk_id": "0-0.1-17",
            "time_elapsed": 97647,
            "key_press": -1,
            "trial_index": 0,
            "trial_index_global": 89
        },
        {
            "rt": -1,
            "trial_type": "single-stim",
            "stimulus": "",
            "internal_chunk_id": "0-0.1-17",
            "time_elapsed": 97900,
            "key_press": -1,
            "trial_index": 0,
            "trial_index_global": 90
        },
        {
            "rt": -1,
            "trial_type": "single-stim",
            "stimulus": "<div class = centerbox><p class = 'stroop-stim'>+</p></div>",
            "internal_chunk_id": "0-0.1-18",
            "time_elapsed": 98104,
            "key_press": -1,
            "trial_index": 0,
            "trial_index_global": 91
        },
        {
            "rt": 477,
            "trial_type": "single-stim",
            "stimulus": "<div class = centerbox><p class = stroop-stim style = \"color:red\">GREEN</p></div>",
            "internal_chunk_id": "0-0.1-18",
            "time_elapsed": 98731,
            "key_press": 82,
            "type": "stroop_practice",
            "trial_index": 0,
            "trial_index_global": 92
        },
        {
            "rt": -1,
            "trial_type": "single-stim",
            "stimulus": "",
            "internal_chunk_id": "0-0.1-18",
            "time_elapsed": 98983,
            "key_press": -1,
            "trial_index": 0,
            "trial_index_global": 93
        },
        {
            "rt": -1,
            "trial_type": "single-stim",
            "stimulus": "<div class = centerbox><p class = stroop-stim>correct</p></div>",
            "internal_chunk_id": "0-0.1-18",
            "time_elapsed": 99488,
            "key_press": -1,
            "trial_index": 0,
            "trial_index_global": 94
        },
        {
            "rt": -1,
            "trial_type": "single-stim",
            "stimulus": "",
            "internal_chunk_id": "0-0.1-18",
            "time_elapsed": 99740,
            "key_press": -1,
            "trial_index": 0,
            "trial_index_global": 95
        },
        {
            "rt": -1,
            "trial_type": "single-stim",
            "stimulus": "<div class = centerbox><p class = 'stroop-stim'>+</p></div>",
            "internal_chunk_id": "0-0.1-19",
            "time_elapsed": 99944,
            "key_press": -1,
            "trial_index": 0,
            "trial_index_global": 96
        },
        {
            "rt": 973,
            "trial_type": "single-stim",
            "stimulus": "<div class = centerbox><p class = stroop-stim style = \"color:green\">RED</p></div>",
            "internal_chunk_id": "0-0.1-19",
            "time_elapsed": 101084,
            "key_press": 71,
            "type": "stroop_practice",
            "trial_index": 0,
            "trial_index_global": 97
        },
        {
            "rt": -1,
            "trial_type": "single-stim",
            "stimulus": "",
            "internal_chunk_id": "0-0.1-19",
            "time_elapsed": 101336,
            "key_press": -1,
            "trial_index": 0,
            "trial_index_global": 98
        },
        {
            "rt": -1,
            "trial_type": "single-stim",
            "stimulus": "<div class = centerbox><p class = stroop-stim>correct</p></div>",
            "internal_chunk_id": "0-0.1-19",
            "time_elapsed": 101841,
            "key_press": -1,
            "trial_index": 0,
            "trial_index_global": 99
        },
        {
            "rt": -1,
            "trial_type": "single-stim",
            "stimulus": "",
            "internal_chunk_id": "0-0.1-19",
            "time_elapsed": 102093,
            "key_press": -1,
            "trial_index": 0,
            "trial_index_global": 100
        },
        {
            "rt": -1,
            "trial_type": "single-stim",
            "stimulus": "<div class = centerbox><p class = 'stroop-stim'>+</p></div>",
            "internal_chunk_id": "0-0.1-20",
            "time_elapsed": 102297,
            "key_press": -1,
            "trial_index": 0,
            "trial_index_global": 101
        },
        {
            "rt": 483,
            "trial_type": "single-stim",
            "stimulus": "<div class = centerbox><p class = stroop-stim style = \"color:green\">GREEN</p></div>",
            "internal_chunk_id": "0-0.1-20",
            "time_elapsed": 102904,
            "key_press": 71,
            "type": "stroop_practice",
            "trial_index": 0,
            "trial_index_global": 102
        },
        {
            "rt": -1,
            "trial_type": "single-stim",
            "stimulus": "",
            "internal_chunk_id": "0-0.1-20",
            "time_elapsed": 103156,
            "key_press": -1,
            "trial_index": 0,
            "trial_index_global": 103
        },
        {
            "rt": -1,
            "trial_type": "single-stim",
            "stimulus": "<div class = centerbox><p class = stroop-stim>correct</p></div>",
            "internal_chunk_id": "0-0.1-20",
            "time_elapsed": 103661,
            "key_press": -1,
            "trial_index": 0,
            "trial_index_global": 104
        },
        {
            "rt": -1,
            "trial_type": "single-stim",
            "stimulus": "",
            "internal_chunk_id": "0-0.1-20",
            "time_elapsed": 103913,
            "key_press": -1,
            "trial_index": 0,
            "trial_index_global": 105
        },
        {
            "rt": -1,
            "trial_type": "single-stim",
            "stimulus": "<div class = centerbox><p class = 'stroop-stim'>+</p></div>",
            "internal_chunk_id": "0-0.1-21",
            "time_elapsed": 104117,
            "key_press": -1,
            "trial_index": 0,
            "trial_index_global": 106
        },
        {
            "rt": 435,
            "trial_type": "single-stim",
            "stimulus": "<div class = centerbox><p class = stroop-stim style = \"color:green\">GREEN</p></div>",
            "internal_chunk_id": "0-0.1-21",
            "time_elapsed": 104652,
            "key_press": 71,
            "type": "stroop_practice",
            "trial_index": 0,
            "trial_index_global": 107
        },
        {
            "rt": -1,
            "trial_type": "single-stim",
            "stimulus": "",
            "internal_chunk_id": "0-0.1-21",
            "time_elapsed": 104906,
            "key_press": -1,
            "trial_index": 0,
            "trial_index_global": 108
        },
        {
            "rt": -1,
            "trial_type": "single-stim",
            "stimulus": "<div class = centerbox><p class = stroop-stim>correct</p></div>",
            "internal_chunk_id": "0-0.1-21",
            "time_elapsed": 105413,
            "key_press": -1,
            "trial_index": 0,
            "trial_index_global": 109
        },
        {
            "rt": -1,
            "trial_type": "single-stim",
            "stimulus": "",
            "internal_chunk_id": "0-0.1-21",
            "time_elapsed": 105666,
            "key_press": -1,
            "trial_index": 0,
            "trial_index_global": 110
        },
        {
            "rt": -1,
            "trial_type": "single-stim",
            "stimulus": "<div class = centerbox><p class = 'stroop-stim'>+</p></div>",
            "internal_chunk_id": "0-0.1-22",
            "time_elapsed": 105870,
            "key_press": -1,
            "trial_index": 0,
            "trial_index_global": 111
        },
        {
            "rt": 577,
            "trial_type": "single-stim",
            "stimulus": "<div class = centerbox><p class = stroop-stim style = \"color:red\">RED</p></div>",
            "internal_chunk_id": "0-0.1-22",
            "time_elapsed": 106598,
            "key_press": 82,
            "type": "stroop_practice",
            "trial_index": 0,
            "trial_index_global": 112
        },
        {
            "rt": -1,
            "trial_type": "single-stim",
            "stimulus": "",
            "internal_chunk_id": "0-0.1-22",
            "time_elapsed": 106850,
            "key_press": -1,
            "trial_index": 0,
            "trial_index_global": 113
        },
        {
            "rt": -1,
            "trial_type": "single-stim",
            "stimulus": "<div class = centerbox><p class = stroop-stim>correct</p></div>",
            "internal_chunk_id": "0-0.1-22",
            "time_elapsed": 107354,
            "key_press": -1,
            "trial_index": 0,
            "trial_index_global": 114
        },
        {
            "rt": -1,
            "trial_type": "single-stim",
            "stimulus": "",
            "internal_chunk_id": "0-0.1-22",
            "time_elapsed": 107607,
            "key_press": -1,
            "trial_index": 0,
            "trial_index_global": 115
        },
        {
            "rt": -1,
            "trial_type": "single-stim",
            "stimulus": "<div class = centerbox><p class = 'stroop-stim'>+</p></div>",
            "internal_chunk_id": "0-0.1-23",
            "time_elapsed": 107811,
            "key_press": -1,
            "trial_index": 0,
            "trial_index_global": 116
        },
        {
            "rt": 657,
            "trial_type": "single-stim",
            "stimulus": "<div class = centerbox><p class = stroop-stim style = \"color:blue\">RED</p></div>",
            "internal_chunk_id": "0-0.1-23",
            "time_elapsed": 108592,
            "key_press": 66,
            "type": "stroop_practice",
            "trial_index": 0,
            "trial_index_global": 117
        },
        {
            "rt": -1,
            "trial_type": "single-stim",
            "stimulus": "",
            "internal_chunk_id": "0-0.1-23",
            "time_elapsed": 108844,
            "key_press": -1,
            "trial_index": 0,
            "trial_index_global": 118
        },
        {
            "rt": -1,
            "trial_type": "single-stim",
            "stimulus": "<div class = centerbox><p class = stroop-stim>correct</p></div>",
            "internal_chunk_id": "0-0.1-23",
            "time_elapsed": 109348,
            "key_press": -1,
            "trial_index": 0,
            "trial_index_global": 119
        },
        {
            "rt": -1,
            "trial_type": "single-stim",
            "stimulus": "",
            "internal_chunk_id": "0-0.1-23",
            "time_elapsed": 109601,
            "key_press": -1,
            "trial_index": 0,
            "trial_index_global": 120
        },
        {
            "rt": 9838,
            "trial_type": "text",
            "internal_chunk_id": "0-0",
            "time_elapsed": 119577,
            "key_press": 13,
            "trial_index": 0,
            "trial_index_global": 121
        },
        {
            "rt": -1,
            "trial_type": "single-stim",
            "stimulus": "<div class = centerbox><p class = 'stroop-stim'>+</p></div>",
            "internal_chunk_id": "0-0.3-0",
            "time_elapsed": 120779,
            "key_press": -1,
            "trial_index": 0,
            "trial_index_global": 122
        },
        {
            "rt": 553,
            "trial_type": "single-stim",
            "stimulus": "<div class = centerbox><p class = stroop-stim style = \"color:red\">RED</p></div>",
            "internal_chunk_id": "0-0.3-0",
            "time_elapsed": 121473,
            "key_press": 82,
            "type": "stroop_infrequent",
            "trial_index": 0,
            "trial_index_global": 123
        },
        {
            "rt": -1,
            "trial_type": "single-stim",
            "stimulus": "",
            "internal_chunk_id": "0-0.3-0",
            "time_elapsed": 121724,
            "key_press": -1,
            "trial_index": 0,
            "trial_index_global": 124
        },
        {
            "rt": -1,
            "trial_type": "single-stim",
            "stimulus": "<div class = centerbox><p class = 'stroop-stim'>+</p></div>",
            "internal_chunk_id": "0-0.3-1",
            "time_elapsed": 121929,
            "key_press": -1,
            "trial_index": 0,
            "trial_index_global": 125
        },
        {
            "rt": 569,
            "trial_type": "single-stim",
            "stimulus": "<div class = centerbox><p class = stroop-stim style = \"color:red\">RED</p></div>",
            "internal_chunk_id": "0-0.3-1",
            "time_elapsed": 122628,
            "key_press": 82,
            "type": "stroop_infrequent",
            "trial_index": 0,
            "trial_index_global": 126
        },
        {
            "rt": -1,
            "trial_type": "single-stim",
            "stimulus": "",
            "internal_chunk_id": "0-0.3-1",
            "time_elapsed": 122880,
            "key_press": -1,
            "trial_index": 0,
            "trial_index_global": 127
        },
        {
            "rt": -1,
            "trial_type": "single-stim",
            "stimulus": "<div class = centerbox><p class = 'stroop-stim'>+</p></div>",
            "internal_chunk_id": "0-0.3-2",
            "time_elapsed": 123085,
            "key_press": -1,
            "trial_index": 0,
            "trial_index_global": 128
        },
        {
            "rt": 482,
            "trial_type": "single-stim",
            "stimulus": "<div class = centerbox><p class = stroop-stim style = \"color:red\">RED</p></div>",
            "internal_chunk_id": "0-0.3-2",
            "time_elapsed": 123738,
            "key_press": 82,
            "type": "stroop_infrequent",
            "trial_index": 0,
            "trial_index_global": 129
        },
        {
            "rt": -1,
            "trial_type": "single-stim",
            "stimulus": "",
            "internal_chunk_id": "0-0.3-2",
            "time_elapsed": 123990,
            "key_press": -1,
            "trial_index": 0,
            "trial_index_global": 130
        },
        {
            "rt": -1,
            "trial_type": "single-stim",
            "stimulus": "<div class = centerbox><p class = 'stroop-stim'>+</p></div>",
            "internal_chunk_id": "0-0.3-3",
            "time_elapsed": 124199,
            "key_press": -1,
            "trial_index": 0,
            "trial_index_global": 131
        },
        {
            "rt": 498,
            "trial_type": "single-stim",
            "stimulus": "<div class = centerbox><p class = stroop-stim style = \"color:green\">GREEN</p></div>",
            "internal_chunk_id": "0-0.3-3",
            "time_elapsed": 124863,
            "key_press": 71,
            "type": "stroop_infrequent",
            "trial_index": 0,
            "trial_index_global": 132
        },
        {
            "rt": 22,
            "trial_type": "single-stim",
            "stimulus": "",
            "internal_chunk_id": "0-0.3-3",
            "time_elapsed": 125115,
            "key_press": 71,
            "trial_index": 0,
            "trial_index_global": 133
        },
        {
            "rt": -1,
            "trial_type": "single-stim",
            "stimulus": "<div class = centerbox><p class = 'stroop-stim'>+</p></div>",
            "internal_chunk_id": "0-0.3-4",
            "time_elapsed": 125319,
            "key_press": -1,
            "trial_index": 0,
            "trial_index_global": 134
        },
        {
            "rt": 546,
            "trial_type": "single-stim",
            "stimulus": "<div class = centerbox><p class = stroop-stim style = \"color:blue\">BLUE</p></div>",
            "internal_chunk_id": "0-0.3-4",
            "time_elapsed": 125983,
            "key_press": 66,
            "type": "stroop_infrequent",
            "trial_index": 0,
            "trial_index_global": 135
        },
        {
            "rt": -1,
            "trial_type": "single-stim",
            "stimulus": "",
            "internal_chunk_id": "0-0.3-4",
            "time_elapsed": 126236,
            "key_press": -1,
            "trial_index": 0,
            "trial_index_global": 136
        },
        {
            "rt": -1,
            "trial_type": "single-stim",
            "stimulus": "<div class = centerbox><p class = 'stroop-stim'>+</p></div>",
            "internal_chunk_id": "0-0.3-5",
            "time_elapsed": 126441,
            "key_press": -1,
            "trial_index": 0,
            "trial_index_global": 137
        },
        {
            "rt": 630,
            "trial_type": "single-stim",
            "stimulus": "<div class = centerbox><p class = stroop-stim style = \"color:red\">GREEN</p></div>",
            "internal_chunk_id": "0-0.3-5",
            "time_elapsed": 127200,
            "key_press": 82,
            "type": "stroop_infrequent",
            "trial_index": 0,
            "trial_index_global": 138
        },
        {
            "rt": -1,
            "trial_type": "single-stim",
            "stimulus": "",
            "internal_chunk_id": "0-0.3-5",
            "time_elapsed": 127452,
            "key_press": -1,
            "trial_index": 0,
            "trial_index_global": 139
        },
        {
            "rt": -1,
            "trial_type": "single-stim",
            "stimulus": "<div class = centerbox><p class = 'stroop-stim'>+</p></div>",
            "internal_chunk_id": "0-0.3-6",
            "time_elapsed": 127658,
            "key_press": -1,
            "trial_index": 0,
            "trial_index_global": 140
        },
        {
            "rt": 995,
            "trial_type": "single-stim",
            "stimulus": "<div class = centerbox><p class = stroop-stim style = \"color:blue\">GREEN</p></div>",
            "internal_chunk_id": "0-0.3-6",
            "time_elapsed": 128844,
            "key_press": 66,
            "type": "stroop_infrequent",
            "trial_index": 0,
            "trial_index_global": 141
        },
        {
            "rt": -1,
            "trial_type": "single-stim",
            "stimulus": "",
            "internal_chunk_id": "0-0.3-6",
            "time_elapsed": 129096,
            "key_press": -1,
            "trial_index": 0,
            "trial_index_global": 142
        },
        {
            "rt": -1,
            "trial_type": "single-stim",
            "stimulus": "<div class = centerbox><p class = 'stroop-stim'>+</p></div>",
            "internal_chunk_id": "0-0.3-7",
            "time_elapsed": 129302,
            "key_press": -1,
            "trial_index": 0,
            "trial_index_global": 143
        },
        {
            "rt": 480,
            "trial_type": "single-stim",
            "stimulus": "<div class = centerbox><p class = stroop-stim style = \"color:green\">GREEN</p></div>",
            "internal_chunk_id": "0-0.3-7",
            "time_elapsed": 129922,
            "key_press": 71,
            "type": "stroop_infrequent",
            "trial_index": 0,
            "trial_index_global": 144
        },
        {
            "rt": -1,
            "trial_type": "single-stim",
            "stimulus": "",
            "internal_chunk_id": "0-0.3-7",
            "time_elapsed": 130174,
            "key_press": -1,
            "trial_index": 0,
            "trial_index_global": 145
        },
        {
            "rt": -1,
            "trial_type": "single-stim",
            "stimulus": "<div class = centerbox><p class = 'stroop-stim'>+</p></div>",
            "internal_chunk_id": "0-0.3-8",
            "time_elapsed": 130379,
            "key_press": -1,
            "trial_index": 0,
            "trial_index_global": 146
        },
        {
            "rt": 599,
            "trial_type": "single-stim",
            "stimulus": "<div class = centerbox><p class = stroop-stim style = \"color:blue\">BLUE</p></div>",
            "internal_chunk_id": "0-0.3-8",
            "time_elapsed": 131096,
            "key_press": 66,
            "type": "stroop_infrequent",
            "trial_index": 0,
            "trial_index_global": 147
        },
        {
            "rt": -1,
            "trial_type": "single-stim",
            "stimulus": "",
            "internal_chunk_id": "0-0.3-8",
            "time_elapsed": 131347,
            "key_press": -1,
            "trial_index": 0,
            "trial_index_global": 148
        },
        {
            "rt": -1,
            "trial_type": "single-stim",
            "stimulus": "<div class = centerbox><p class = 'stroop-stim'>+</p></div>",
            "internal_chunk_id": "0-0.3-9",
            "time_elapsed": 131553,
            "key_press": -1,
            "trial_index": 0,
            "trial_index_global": 149
        },
        {
            "rt": 720,
            "trial_type": "single-stim",
            "stimulus": "<div class = centerbox><p class = stroop-stim style = \"color:green\">GREEN</p></div>",
            "internal_chunk_id": "0-0.3-9",
            "time_elapsed": 132420,
            "key_press": 71,
            "type": "stroop_infrequent",
            "trial_index": 0,
            "trial_index_global": 150
        },
        {
            "rt": -1,
            "trial_type": "single-stim",
            "stimulus": "",
            "internal_chunk_id": "0-0.3-9",
            "time_elapsed": 132672,
            "key_press": -1,
            "trial_index": 0,
            "trial_index_global": 151
        },
        {
            "rt": -1,
            "trial_type": "single-stim",
            "stimulus": "<div class = centerbox><p class = 'stroop-stim'>+</p></div>",
            "internal_chunk_id": "0-0.3-10",
            "time_elapsed": 132876,
            "key_press": -1,
            "trial_index": 0,
            "trial_index_global": 152
        },
        {
            "rt": 572,
            "trial_type": "single-stim",
            "stimulus": "<div class = centerbox><p class = stroop-stim style = \"color:blue\">BLUE</p></div>",
            "internal_chunk_id": "0-0.3-10",
            "time_elapsed": 133635,
            "key_press": 66,
            "type": "stroop_infrequent",
            "trial_index": 0,
            "trial_index_global": 153
        },
        {
            "rt": -1,
            "trial_type": "single-stim",
            "stimulus": "",
            "internal_chunk_id": "0-0.3-10",
            "time_elapsed": 133886,
            "key_press": -1,
            "trial_index": 0,
            "trial_index_global": 154
        },
        {
            "rt": -1,
            "trial_type": "single-stim",
            "stimulus": "<div class = centerbox><p class = 'stroop-stim'>+</p></div>",
            "internal_chunk_id": "0-0.3-11",
            "time_elapsed": 134089,
            "key_press": -1,
            "trial_index": 0,
            "trial_index_global": 155
        },
        {
            "rt": 610,
            "trial_type": "single-stim",
            "stimulus": "<div class = centerbox><p class = stroop-stim style = \"color:blue\">RED</p></div>",
            "internal_chunk_id": "0-0.3-11",
            "time_elapsed": 134828,
            "key_press": 66,
            "type": "stroop_infrequent",
            "trial_index": 0,
            "trial_index_global": 156
        },
        {
            "rt": -1,
            "trial_type": "single-stim",
            "stimulus": "",
            "internal_chunk_id": "0-0.3-11",
            "time_elapsed": 135080,
            "key_press": -1,
            "trial_index": 0,
            "trial_index_global": 157
        },
        {
            "rt": -1,
            "trial_type": "single-stim",
            "stimulus": "<div class = centerbox><p class = 'stroop-stim'>+</p></div>",
            "internal_chunk_id": "0-0.3-12",
            "time_elapsed": 135285,
            "key_press": -1,
            "trial_index": 0,
            "trial_index_global": 158
        },
        {
            "rt": 624,
            "trial_type": "single-stim",
            "stimulus": "<div class = centerbox><p class = stroop-stim style = \"color:red\">RED</p></div>",
            "internal_chunk_id": "0-0.3-12",
            "time_elapsed": 136052,
            "key_press": 82,
            "type": "stroop_infrequent",
            "trial_index": 0,
            "trial_index_global": 159
        },
        {
            "rt": -1,
            "trial_type": "single-stim",
            "stimulus": "",
            "internal_chunk_id": "0-0.3-12",
            "time_elapsed": 136303,
            "key_press": -1,
            "trial_index": 0,
            "trial_index_global": 160
        },
        {
            "rt": -1,
            "trial_type": "single-stim",
            "stimulus": "<div class = centerbox><p class = 'stroop-stim'>+</p></div>",
            "internal_chunk_id": "0-0.3-13",
            "time_elapsed": 136509,
            "key_press": -1,
            "trial_index": 0,
            "trial_index_global": 161
        },
        {
            "rt": 515,
            "trial_type": "single-stim",
            "stimulus": "<div class = centerbox><p class = stroop-stim style = \"color:red\">RED</p></div>",
            "internal_chunk_id": "0-0.3-13",
            "time_elapsed": 137183,
            "key_press": 82,
            "type": "stroop_infrequent",
            "trial_index": 0,
            "trial_index_global": 162
        },
        {
            "rt": -1,
            "trial_type": "single-stim",
            "stimulus": "",
            "internal_chunk_id": "0-0.3-13",
            "time_elapsed": 137435,
            "key_press": -1,
            "trial_index": 0,
            "trial_index_global": 163
        },
        {
            "rt": -1,
            "trial_type": "single-stim",
            "stimulus": "<div class = centerbox><p class = 'stroop-stim'>+</p></div>",
            "internal_chunk_id": "0-0.3-14",
            "time_elapsed": 137639,
            "key_press": -1,
            "trial_index": 0,
            "trial_index_global": 164
        },
        {
            "rt": 449,
            "trial_type": "single-stim",
            "stimulus": "<div class = centerbox><p class = stroop-stim style = \"color:red\">BLUE</p></div>",
            "internal_chunk_id": "0-0.3-14",
            "time_elapsed": 138227,
            "key_press": 82,
            "type": "stroop_infrequent",
            "trial_index": 0,
            "trial_index_global": 165
        },
        {
            "rt": -1,
            "trial_type": "single-stim",
            "stimulus": "",
            "internal_chunk_id": "0-0.3-14",
            "time_elapsed": 138480,
            "key_press": -1,
            "trial_index": 0,
            "trial_index_global": 166
        },
        {
            "rt": -1,
            "trial_type": "single-stim",
            "stimulus": "<div class = centerbox><p class = 'stroop-stim'>+</p></div>",
            "internal_chunk_id": "0-0.3-15",
            "time_elapsed": 138684,
            "key_press": -1,
            "trial_index": 0,
            "trial_index_global": 167
        },
        {
            "rt": 459,
            "trial_type": "single-stim",
            "stimulus": "<div class = centerbox><p class = stroop-stim style = \"color:green\">GREEN</p></div>",
            "internal_chunk_id": "0-0.3-15",
            "time_elapsed": 139267,
            "key_press": 82,
            "type": "stroop_infrequent",
            "trial_index": 0,
            "trial_index_global": 168
        },
        {
            "rt": 56,
            "trial_type": "single-stim",
            "stimulus": "",
            "internal_chunk_id": "0-0.3-15",
            "time_elapsed": 139519,
            "key_press": 71,
            "trial_index": 0,
            "trial_index_global": 169
        },
        {
            "rt": -1,
            "trial_type": "single-stim",
            "stimulus": "<div class = centerbox><p class = 'stroop-stim'>+</p></div>",
            "internal_chunk_id": "0-0.3-16",
            "time_elapsed": 139722,
            "key_press": -1,
            "trial_index": 0,
            "trial_index_global": 170
        },
        {
            "rt": 541,
            "trial_type": "single-stim",
            "stimulus": "<div class = centerbox><p class = stroop-stim style = \"color:green\">GREEN</p></div>",
            "internal_chunk_id": "0-0.3-16",
            "time_elapsed": 140451,
            "key_press": 71,
            "type": "stroop_infrequent",
            "trial_index": 0,
            "trial_index_global": 171
        },
        {
            "rt": -1,
            "trial_type": "single-stim",
            "stimulus": "",
            "internal_chunk_id": "0-0.3-16",
            "time_elapsed": 140703,
            "key_press": -1,
            "trial_index": 0,
            "trial_index_global": 172
        },
        {
            "rt": -1,
            "trial_type": "single-stim",
            "stimulus": "<div class = centerbox><p class = 'stroop-stim'>+</p></div>",
            "internal_chunk_id": "0-0.3-17",
            "time_elapsed": 140908,
            "key_press": -1,
            "trial_index": 0,
            "trial_index_global": 173
        },
        {
            "rt": 453,
            "trial_type": "single-stim",
            "stimulus": "<div class = centerbox><p class = stroop-stim style = \"color:green\">GREEN</p></div>",
            "internal_chunk_id": "0-0.3-17",
            "time_elapsed": 141485,
            "key_press": 71,
            "type": "stroop_infrequent",
            "trial_index": 0,
            "trial_index_global": 174
        },
        {
            "rt": -1,
            "trial_type": "single-stim",
            "stimulus": "",
            "internal_chunk_id": "0-0.3-17",
            "time_elapsed": 141738,
            "key_press": -1,
            "trial_index": 0,
            "trial_index_global": 175
        },
        {
            "rt": -1,
            "trial_type": "single-stim",
            "stimulus": "<div class = centerbox><p class = 'stroop-stim'>+</p></div>",
            "internal_chunk_id": "0-0.3-18",
            "time_elapsed": 141943,
            "key_press": -1,
            "trial_index": 0,
            "trial_index_global": 176
        },
        {
            "rt": 642,
            "trial_type": "single-stim",
            "stimulus": "<div class = centerbox><p class = stroop-stim style = \"color:green\">BLUE</p></div>",
            "internal_chunk_id": "0-0.3-18",
            "time_elapsed": 142792,
            "key_press": 71,
            "type": "stroop_infrequent",
            "trial_index": 0,
            "trial_index_global": 177
        },
        {
            "rt": -1,
            "trial_type": "single-stim",
            "stimulus": "",
            "internal_chunk_id": "0-0.3-18",
            "time_elapsed": 143044,
            "key_press": -1,
            "trial_index": 0,
            "trial_index_global": 178
        },
        {
            "rt": -1,
            "trial_type": "single-stim",
            "stimulus": "<div class = centerbox><p class = 'stroop-stim'>+</p></div>",
            "internal_chunk_id": "0-0.3-19",
            "time_elapsed": 143250,
            "key_press": -1,
            "trial_index": 0,
            "trial_index_global": 179
        },
        {
            "rt": 415,
            "trial_type": "single-stim",
            "stimulus": "<div class = centerbox><p class = stroop-stim style = \"color:green\">GREEN</p></div>",
            "internal_chunk_id": "0-0.3-19",
            "time_elapsed": 143783,
            "key_press": 71,
            "type": "stroop_infrequent",
            "trial_index": 0,
            "trial_index_global": 180
        },
        {
            "rt": -1,
            "trial_type": "single-stim",
            "stimulus": "",
            "internal_chunk_id": "0-0.3-19",
            "time_elapsed": 144035,
            "key_press": -1,
            "trial_index": 0,
            "trial_index_global": 181
        },
        {
            "rt": -1,
            "trial_type": "single-stim",
            "stimulus": "<div class = centerbox><p class = 'stroop-stim'>+</p></div>",
            "internal_chunk_id": "0-0.3-20",
            "time_elapsed": 144241,
            "key_press": -1,
            "trial_index": 0,
            "trial_index_global": 182
        },
        {
            "rt": 542,
            "trial_type": "single-stim",
            "stimulus": "<div class = centerbox><p class = stroop-stim style = \"color:red\">BLUE</p></div>",
            "internal_chunk_id": "0-0.3-20",
            "time_elapsed": 144932,
            "key_press": 82,
            "type": "stroop_infrequent",
            "trial_index": 0,
            "trial_index_global": 183
        },
        {
            "rt": -1,
            "trial_type": "single-stim",
            "stimulus": "",
            "internal_chunk_id": "0-0.3-20",
            "time_elapsed": 145184,
            "key_press": -1,
            "trial_index": 0,
            "trial_index_global": 184
        },
        {
            "rt": -1,
            "trial_type": "single-stim",
            "stimulus": "<div class = centerbox><p class = 'stroop-stim'>+</p></div>",
            "internal_chunk_id": "0-0.3-21",
            "time_elapsed": 145390,
            "key_press": -1,
            "trial_index": 0,
            "trial_index_global": 185
        },
        {
            "rt": 404,
            "trial_type": "single-stim",
            "stimulus": "<div class = centerbox><p class = stroop-stim style = \"color:blue\">BLUE</p></div>",
            "internal_chunk_id": "0-0.3-21",
            "time_elapsed": 145885,
            "key_press": 66,
            "type": "stroop_infrequent",
            "trial_index": 0,
            "trial_index_global": 186
        },
        {
            "rt": -1,
            "trial_type": "single-stim",
            "stimulus": "",
            "internal_chunk_id": "0-0.3-21",
            "time_elapsed": 146137,
            "key_press": -1,
            "trial_index": 0,
            "trial_index_global": 187
        },
        {
            "rt": -1,
            "trial_type": "single-stim",
            "stimulus": "<div class = centerbox><p class = 'stroop-stim'>+</p></div>",
            "internal_chunk_id": "0-0.3-22",
            "time_elapsed": 146343,
            "key_press": -1,
            "trial_index": 0,
            "trial_index_global": 188
        },
        {
            "rt": 536,
            "trial_type": "single-stim",
            "stimulus": "<div class = centerbox><p class = stroop-stim style = \"color:red\">RED</p></div>",
            "internal_chunk_id": "0-0.3-22",
            "time_elapsed": 147020,
            "key_press": 82,
            "type": "stroop_infrequent",
            "trial_index": 0,
            "trial_index_global": 189
        },
        {
            "rt": -1,
            "trial_type": "single-stim",
            "stimulus": "",
            "internal_chunk_id": "0-0.3-22",
            "time_elapsed": 147272,
            "key_press": -1,
            "trial_index": 0,
            "trial_index_global": 190
        },
        {
            "rt": -1,
            "trial_type": "single-stim",
            "stimulus": "<div class = centerbox><p class = 'stroop-stim'>+</p></div>",
            "internal_chunk_id": "0-0.3-23",
            "time_elapsed": 147479,
            "key_press": -1,
            "trial_index": 0,
            "trial_index_global": 191
        },
        {
            "rt": 456,
            "trial_type": "single-stim",
            "stimulus": "<div class = centerbox><p class = stroop-stim style = \"color:red\">RED</p></div>",
            "internal_chunk_id": "0-0.3-23",
            "time_elapsed": 148111,
            "key_press": 82,
            "type": "stroop_infrequent",
            "trial_index": 0,
            "trial_index_global": 192
        },
        {
            "rt": -1,
            "trial_type": "single-stim",
            "stimulus": "",
            "internal_chunk_id": "0-0.3-23",
            "time_elapsed": 148363,
            "key_press": -1,
            "trial_index": 0,
            "trial_index_global": 193
        },
        {
            "rt": -1,
            "trial_type": "single-stim",
            "stimulus": "<div class = centerbox><p class = 'stroop-stim'>+</p></div>",
            "internal_chunk_id": "0-0.3-24",
            "time_elapsed": 148570,
            "key_press": -1,
            "trial_index": 0,
            "trial_index_global": 194
        },
        {
            "rt": 430,
            "trial_type": "single-stim",
            "stimulus": "<div class = centerbox><p class = stroop-stim style = \"color:red\">RED</p></div>",
            "internal_chunk_id": "0-0.3-24",
            "time_elapsed": 149072,
            "key_press": 82,
            "type": "stroop_infrequent",
            "trial_index": 0,
            "trial_index_global": 195
        },
        {
            "rt": -1,
            "trial_type": "single-stim",
            "stimulus": "",
            "internal_chunk_id": "0-0.3-24",
            "time_elapsed": 149324,
            "key_press": -1,
            "trial_index": 0,
            "trial_index_global": 196
        },
        {
            "rt": -1,
            "trial_type": "single-stim",
            "stimulus": "<div class = centerbox><p class = 'stroop-stim'>+</p></div>",
            "internal_chunk_id": "0-0.3-25",
            "time_elapsed": 149530,
            "key_press": -1,
            "trial_index": 0,
            "trial_index_global": 197
        },
        {
            "rt": 420,
            "trial_type": "single-stim",
            "stimulus": "<div class = centerbox><p class = stroop-stim style = \"color:red\">RED</p></div>",
            "internal_chunk_id": "0-0.3-25",
            "time_elapsed": 150084,
            "key_press": 82,
            "type": "stroop_infrequent",
            "trial_index": 0,
            "trial_index_global": 198
        },
        {
            "rt": -1,
            "trial_type": "single-stim",
            "stimulus": "",
            "internal_chunk_id": "0-0.3-25",
            "time_elapsed": 150336,
            "key_press": -1,
            "trial_index": 0,
            "trial_index_global": 199
        },
        {
            "rt": -1,
            "trial_type": "single-stim",
            "stimulus": "<div class = centerbox><p class = 'stroop-stim'>+</p></div>",
            "internal_chunk_id": "0-0.3-26",
            "time_elapsed": 150542,
            "key_press": -1,
            "trial_index": 0,
            "trial_index_global": 200
        },
        {
            "rt": 567,
            "trial_type": "single-stim",
            "stimulus": "<div class = centerbox><p class = stroop-stim style = \"color:green\">RED</p></div>",
            "internal_chunk_id": "0-0.3-26",
            "time_elapsed": 151308,
            "key_press": 71,
            "type": "stroop_infrequent",
            "trial_index": 0,
            "trial_index_global": 201
        },
        {
            "rt": -1,
            "trial_type": "single-stim",
            "stimulus": "",
            "internal_chunk_id": "0-0.3-26",
            "time_elapsed": 151560,
            "key_press": -1,
            "trial_index": 0,
            "trial_index_global": 202
        },
        {
            "rt": -1,
            "trial_type": "single-stim",
            "stimulus": "<div class = centerbox><p class = 'stroop-stim'>+</p></div>",
            "internal_chunk_id": "0-0.3-27",
            "time_elapsed": 151766,
            "key_press": -1,
            "trial_index": 0,
            "trial_index_global": 203
        },
        {
            "rt": 534,
            "trial_type": "single-stim",
            "stimulus": "<div class = centerbox><p class = stroop-stim style = \"color:blue\">BLUE</p></div>",
            "internal_chunk_id": "0-0.3-27",
            "time_elapsed": 152395,
            "key_press": 66,
            "type": "stroop_infrequent",
            "trial_index": 0,
            "trial_index_global": 204
        },
        {
            "rt": -1,
            "trial_type": "single-stim",
            "stimulus": "",
            "internal_chunk_id": "0-0.3-27",
            "time_elapsed": 152648,
            "key_press": -1,
            "trial_index": 0,
            "trial_index_global": 205
        },
        {
            "rt": -1,
            "trial_type": "single-stim",
            "stimulus": "<div class = centerbox><p class = 'stroop-stim'>+</p></div>",
            "internal_chunk_id": "0-0.3-28",
            "time_elapsed": 152854,
            "key_press": -1,
            "trial_index": 0,
            "trial_index_global": 206
        },
        {
            "rt": 472,
            "trial_type": "single-stim",
            "stimulus": "<div class = centerbox><p class = stroop-stim style = \"color:blue\">BLUE</p></div>",
            "internal_chunk_id": "0-0.3-28",
            "time_elapsed": 153425,
            "key_press": 66,
            "type": "stroop_infrequent",
            "trial_index": 0,
            "trial_index_global": 207
        },
        {
            "rt": -1,
            "trial_type": "single-stim",
            "stimulus": "",
            "internal_chunk_id": "0-0.3-28",
            "time_elapsed": 153677,
            "key_press": -1,
            "trial_index": 0,
            "trial_index_global": 208
        },
        {
            "rt": -1,
            "trial_type": "single-stim",
            "stimulus": "<div class = centerbox><p class = 'stroop-stim'>+</p></div>",
            "internal_chunk_id": "0-0.3-29",
            "time_elapsed": 153883,
            "key_press": -1,
            "trial_index": 0,
            "trial_index_global": 209
        },
        {
            "rt": 466,
            "trial_type": "single-stim",
            "stimulus": "<div class = centerbox><p class = stroop-stim style = \"color:blue\">BLUE</p></div>",
            "internal_chunk_id": "0-0.3-29",
            "time_elapsed": 154410,
            "key_press": 66,
            "type": "stroop_infrequent",
            "trial_index": 0,
            "trial_index_global": 210
        },
        {
            "rt": -1,
            "trial_type": "single-stim",
            "stimulus": "",
            "internal_chunk_id": "0-0.3-29",
            "time_elapsed": 154663,
            "key_press": -1,
            "trial_index": 0,
            "trial_index_global": 211
        },
        {
            "rt": -1,
            "trial_type": "single-stim",
            "stimulus": "<div class = centerbox><p class = 'stroop-stim'>+</p></div>",
            "internal_chunk_id": "0-0.3-30",
            "time_elapsed": 154869,
            "key_press": -1,
            "trial_index": 0,
            "trial_index_global": 212
        },
        {
            "rt": 576,
            "trial_type": "single-stim",
            "stimulus": "<div class = centerbox><p class = stroop-stim style = \"color:green\">GREEN</p></div>",
            "internal_chunk_id": "0-0.3-30",
            "time_elapsed": 155585,
            "key_press": 71,
            "type": "stroop_infrequent",
            "trial_index": 0,
            "trial_index_global": 213
        },
        {
            "rt": -1,
            "trial_type": "single-stim",
            "stimulus": "",
            "internal_chunk_id": "0-0.3-30",
            "time_elapsed": 155836,
            "key_press": -1,
            "trial_index": 0,
            "trial_index_global": 214
        },
        {
            "rt": -1,
            "trial_type": "single-stim",
            "stimulus": "<div class = centerbox><p class = 'stroop-stim'>+</p></div>",
            "internal_chunk_id": "0-0.3-31",
            "time_elapsed": 156042,
            "key_press": -1,
            "trial_index": 0,
            "trial_index_global": 215
        },
        {
            "rt": 416,
            "trial_type": "single-stim",
            "stimulus": "<div class = centerbox><p class = stroop-stim style = \"color:red\">RED</p></div>",
            "internal_chunk_id": "0-0.3-31",
            "time_elapsed": 156592,
            "key_press": 82,
            "type": "stroop_infrequent",
            "trial_index": 0,
            "trial_index_global": 216
        },
        {
            "rt": -1,
            "trial_type": "single-stim",
            "stimulus": "",
            "internal_chunk_id": "0-0.3-31",
            "time_elapsed": 156844,
            "key_press": -1,
            "trial_index": 0,
            "trial_index_global": 217
        },
        {
            "rt": -1,
            "trial_type": "single-stim",
            "stimulus": "<div class = centerbox><p class = 'stroop-stim'>+</p></div>",
            "internal_chunk_id": "0-0.3-32",
            "time_elapsed": 157051,
            "key_press": -1,
            "trial_index": 0,
            "trial_index_global": 218
        },
        {
            "rt": 399,
            "trial_type": "single-stim",
            "stimulus": "<div class = centerbox><p class = stroop-stim style = \"color:red\">RED</p></div>",
            "internal_chunk_id": "0-0.3-32",
            "time_elapsed": 157538,
            "key_press": 82,
            "type": "stroop_infrequent",
            "trial_index": 0,
            "trial_index_global": 219
        },
        {
            "rt": -1,
            "trial_type": "single-stim",
            "stimulus": "",
            "internal_chunk_id": "0-0.3-32",
            "time_elapsed": 157790,
            "key_press": -1,
            "trial_index": 0,
            "trial_index_global": 220
        },
        {
            "rt": -1,
            "trial_type": "single-stim",
            "stimulus": "<div class = centerbox><p class = 'stroop-stim'>+</p></div>",
            "internal_chunk_id": "0-0.3-33",
            "time_elapsed": 158000,
            "key_press": -1,
            "trial_index": 0,
            "trial_index_global": 221
        },
        {
            "rt": 479,
            "trial_type": "single-stim",
            "stimulus": "<div class = centerbox><p class = stroop-stim style = \"color:red\">RED</p></div>",
            "internal_chunk_id": "0-0.3-33",
            "time_elapsed": 158624,
            "key_press": 82,
            "type": "stroop_infrequent",
            "trial_index": 0,
            "trial_index_global": 222
        },
        {
            "rt": -1,
            "trial_type": "single-stim",
            "stimulus": "",
            "internal_chunk_id": "0-0.3-33",
            "time_elapsed": 158876,
            "key_press": -1,
            "trial_index": 0,
            "trial_index_global": 223
        },
        {
            "rt": -1,
            "trial_type": "single-stim",
            "stimulus": "<div class = centerbox><p class = 'stroop-stim'>+</p></div>",
            "internal_chunk_id": "0-0.3-34",
            "time_elapsed": 159079,
            "key_press": -1,
            "trial_index": 0,
            "trial_index_global": 224
        },
        {
            "rt": 507,
            "trial_type": "single-stim",
            "stimulus": "<div class = centerbox><p class = stroop-stim style = \"color:blue\">RED</p></div>",
            "internal_chunk_id": "0-0.3-34",
            "time_elapsed": 159683,
            "key_press": 66,
            "type": "stroop_infrequent",
            "trial_index": 0,
            "trial_index_global": 225
        },
        {
            "rt": -1,
            "trial_type": "single-stim",
            "stimulus": "",
            "internal_chunk_id": "0-0.3-34",
            "time_elapsed": 159937,
            "key_press": -1,
            "trial_index": 0,
            "trial_index_global": 226
        },
        {
            "rt": -1,
            "trial_type": "single-stim",
            "stimulus": "<div class = centerbox><p class = 'stroop-stim'>+</p></div>",
            "internal_chunk_id": "0-0.3-35",
            "time_elapsed": 160143,
            "key_press": -1,
            "trial_index": 0,
            "trial_index_global": 227
        },
        {
            "rt": 561,
            "trial_type": "single-stim",
            "stimulus": "<div class = centerbox><p class = stroop-stim style = \"color:red\">RED</p></div>",
            "internal_chunk_id": "0-0.3-35",
            "time_elapsed": 160844,
            "key_press": 82,
            "type": "stroop_infrequent",
            "trial_index": 0,
            "trial_index_global": 228
        },
        {
            "rt": -1,
            "trial_type": "single-stim",
            "stimulus": "",
            "internal_chunk_id": "0-0.3-35",
            "time_elapsed": 161097,
            "key_press": -1,
            "trial_index": 0,
            "trial_index_global": 229
        },
        {
            "rt": -1,
            "trial_type": "single-stim",
            "stimulus": "<div class = centerbox><p class = 'stroop-stim'>+</p></div>",
            "internal_chunk_id": "0-0.3-36",
            "time_elapsed": 161304,
            "key_press": -1,
            "trial_index": 0,
            "trial_index_global": 230
        },
        {
            "rt": 624,
            "trial_type": "single-stim",
            "stimulus": "<div class = centerbox><p class = stroop-stim style = \"color:blue\">BLUE</p></div>",
            "internal_chunk_id": "0-0.3-36",
            "time_elapsed": 162057,
            "key_press": 66,
            "type": "stroop_infrequent",
            "trial_index": 0,
            "trial_index_global": 231
        },
        {
            "rt": -1,
            "trial_type": "single-stim",
            "stimulus": "",
            "internal_chunk_id": "0-0.3-36",
            "time_elapsed": 162309,
            "key_press": -1,
            "trial_index": 0,
            "trial_index_global": 232
        },
        {
            "rt": -1,
            "trial_type": "single-stim",
            "stimulus": "<div class = centerbox><p class = 'stroop-stim'>+</p></div>",
            "internal_chunk_id": "0-0.3-37",
            "time_elapsed": 162519,
            "key_press": -1,
            "trial_index": 0,
            "trial_index_global": 233
        },
        {
            "rt": 412,
            "trial_type": "single-stim",
            "stimulus": "<div class = centerbox><p class = stroop-stim style = \"color:green\">GREEN</p></div>",
            "internal_chunk_id": "0-0.3-37",
            "time_elapsed": 163054,
            "key_press": 71,
            "type": "stroop_infrequent",
            "trial_index": 0,
            "trial_index_global": 234
        },
        {
            "rt": -1,
            "trial_type": "single-stim",
            "stimulus": "",
            "internal_chunk_id": "0-0.3-37",
            "time_elapsed": 163305,
            "key_press": -1,
            "trial_index": 0,
            "trial_index_global": 235
        },
        {
            "rt": -1,
            "trial_type": "single-stim",
            "stimulus": "<div class = centerbox><p class = 'stroop-stim'>+</p></div>",
            "internal_chunk_id": "0-0.3-38",
            "time_elapsed": 163513,
            "key_press": -1,
            "trial_index": 0,
            "trial_index_global": 236
        },
        {
            "rt": 363,
            "trial_type": "single-stim",
            "stimulus": "<div class = centerbox><p class = stroop-stim style = \"color:green\">GREEN</p></div>",
            "internal_chunk_id": "0-0.3-38",
            "time_elapsed": 164000,
            "key_press": 71,
            "type": "stroop_infrequent",
            "trial_index": 0,
            "trial_index_global": 237
        },
        {
            "rt": -1,
            "trial_type": "single-stim",
            "stimulus": "",
            "internal_chunk_id": "0-0.3-38",
            "time_elapsed": 164252,
            "key_press": -1,
            "trial_index": 0,
            "trial_index_global": 238
        },
        {
            "rt": -1,
            "trial_type": "single-stim",
            "stimulus": "<div class = centerbox><p class = 'stroop-stim'>+</p></div>",
            "internal_chunk_id": "0-0.3-39",
            "time_elapsed": 164459,
            "key_press": -1,
            "trial_index": 0,
            "trial_index_global": 239
        },
        {
            "rt": 570,
            "trial_type": "single-stim",
            "stimulus": "<div class = centerbox><p class = stroop-stim style = \"color:blue\">GREEN</p></div>",
            "internal_chunk_id": "0-0.3-39",
            "time_elapsed": 165142,
            "key_press": 66,
            "type": "stroop_infrequent",
            "trial_index": 0,
            "trial_index_global": 240
        },
        {
            "rt": -1,
            "trial_type": "single-stim",
            "stimulus": "",
            "internal_chunk_id": "0-0.3-39",
            "time_elapsed": 165394,
            "key_press": -1,
            "trial_index": 0,
            "trial_index_global": 241
        },
        {
            "rt": -1,
            "trial_type": "single-stim",
            "stimulus": "<div class = centerbox><p class = 'stroop-stim'>+</p></div>",
            "internal_chunk_id": "0-0.3-40",
            "time_elapsed": 165601,
            "key_press": -1,
            "trial_index": 0,
            "trial_index_global": 242
        },
        {
            "rt": 551,
            "trial_type": "single-stim",
            "stimulus": "<div class = centerbox><p class = stroop-stim style = \"color:green\">GREEN</p></div>",
            "internal_chunk_id": "0-0.3-40",
            "time_elapsed": 166281,
            "key_press": 71,
            "type": "stroop_infrequent",
            "trial_index": 0,
            "trial_index_global": 243
        },
        {
            "rt": -1,
            "trial_type": "single-stim",
            "stimulus": "",
            "internal_chunk_id": "0-0.3-40",
            "time_elapsed": 166534,
            "key_press": -1,
            "trial_index": 0,
            "trial_index_global": 244
        },
        {
            "rt": -1,
            "trial_type": "single-stim",
            "stimulus": "<div class = centerbox><p class = 'stroop-stim'>+</p></div>",
            "internal_chunk_id": "0-0.3-41",
            "time_elapsed": 166741,
            "key_press": -1,
            "trial_index": 0,
            "trial_index_global": 245
        },
        {
            "rt": 523,
            "trial_type": "single-stim",
            "stimulus": "<div class = centerbox><p class = stroop-stim style = \"color:red\">RED</p></div>",
            "internal_chunk_id": "0-0.3-41",
            "time_elapsed": 167398,
            "key_press": 82,
            "type": "stroop_infrequent",
            "trial_index": 0,
            "trial_index_global": 246
        },
        {
            "rt": -1,
            "trial_type": "single-stim",
            "stimulus": "",
            "internal_chunk_id": "0-0.3-41",
            "time_elapsed": 167651,
            "key_press": -1,
            "trial_index": 0,
            "trial_index_global": 247
        },
        {
            "rt": -1,
            "trial_type": "single-stim",
            "stimulus": "<div class = centerbox><p class = 'stroop-stim'>+</p></div>",
            "internal_chunk_id": "0-0.3-42",
            "time_elapsed": 167861,
            "key_press": -1,
            "trial_index": 0,
            "trial_index_global": 248
        },
        {
            "rt": 510,
            "trial_type": "single-stim",
            "stimulus": "<div class = centerbox><p class = stroop-stim style = \"color:red\">RED</p></div>",
            "internal_chunk_id": "0-0.3-42",
            "time_elapsed": 168483,
            "key_press": 82,
            "type": "stroop_infrequent",
            "trial_index": 0,
            "trial_index_global": 249
        },
        {
            "rt": -1,
            "trial_type": "single-stim",
            "stimulus": "",
            "internal_chunk_id": "0-0.3-42",
            "time_elapsed": 168735,
            "key_press": -1,
            "trial_index": 0,
            "trial_index_global": 250
        },
        {
            "rt": -1,
            "trial_type": "single-stim",
            "stimulus": "<div class = centerbox><p class = 'stroop-stim'>+</p></div>",
            "internal_chunk_id": "0-0.3-43",
            "time_elapsed": 168942,
            "key_press": -1,
            "trial_index": 0,
            "trial_index_global": 251
        },
        {
            "rt": 453,
            "trial_type": "single-stim",
            "stimulus": "<div class = centerbox><p class = stroop-stim style = \"color:red\">RED</p></div>",
            "internal_chunk_id": "0-0.3-43",
            "time_elapsed": 169568,
            "key_press": 82,
            "type": "stroop_infrequent",
            "trial_index": 0,
            "trial_index_global": 252
        },
        {
            "rt": -1,
            "trial_type": "single-stim",
            "stimulus": "",
            "internal_chunk_id": "0-0.3-43",
            "time_elapsed": 169820,
            "key_press": -1,
            "trial_index": 0,
            "trial_index_global": 253
        },
        {
            "rt": -1,
            "trial_type": "single-stim",
            "stimulus": "<div class = centerbox><p class = 'stroop-stim'>+</p></div>",
            "internal_chunk_id": "0-0.3-44",
            "time_elapsed": 170024,
            "key_press": -1,
            "trial_index": 0,
            "trial_index_global": 254
        },
        {
            "rt": 500,
            "trial_type": "single-stim",
            "stimulus": "<div class = centerbox><p class = stroop-stim style = \"color:green\">GREEN</p></div>",
            "internal_chunk_id": "0-0.3-44",
            "time_elapsed": 170637,
            "key_press": 66,
            "type": "stroop_infrequent",
            "trial_index": 0,
            "trial_index_global": 255
        },
        {
            "rt": -1,
            "trial_type": "single-stim",
            "stimulus": "",
            "internal_chunk_id": "0-0.3-44",
            "time_elapsed": 170888,
            "key_press": -1,
            "trial_index": 0,
            "trial_index_global": 256
        },
        {
            "rt": -1,
            "trial_type": "single-stim",
            "stimulus": "<div class = centerbox><p class = 'stroop-stim'>+</p></div>",
            "internal_chunk_id": "0-0.3-45",
            "time_elapsed": 171095,
            "key_press": -1,
            "trial_index": 0,
            "trial_index_global": 257
        },
        {
            "rt": 620,
            "trial_type": "single-stim",
            "stimulus": "<div class = centerbox><p class = stroop-stim style = \"color:red\">RED</p></div>",
            "internal_chunk_id": "0-0.3-45",
            "time_elapsed": 171838,
            "key_press": 82,
            "type": "stroop_infrequent",
            "trial_index": 0,
            "trial_index_global": 258
        },
        {
            "rt": -1,
            "trial_type": "single-stim",
            "stimulus": "",
            "internal_chunk_id": "0-0.3-45",
            "time_elapsed": 172089,
            "key_press": -1,
            "trial_index": 0,
            "trial_index_global": 259
        },
        {
            "rt": -1,
            "trial_type": "single-stim",
            "stimulus": "<div class = centerbox><p class = 'stroop-stim'>+</p></div>",
            "internal_chunk_id": "0-0.3-46",
            "time_elapsed": 172296,
            "key_press": -1,
            "trial_index": 0,
            "trial_index_global": 260
        },
        {
            "rt": 599,
            "trial_type": "single-stim",
            "stimulus": "<div class = centerbox><p class = stroop-stim style = \"color:blue\">RED</p></div>",
            "internal_chunk_id": "0-0.3-46",
            "time_elapsed": 173048,
            "key_press": 66,
            "type": "stroop_infrequent",
            "trial_index": 0,
            "trial_index_global": 261
        },
        {
            "rt": -1,
            "trial_type": "single-stim",
            "stimulus": "",
            "internal_chunk_id": "0-0.3-46",
            "time_elapsed": 173300,
            "key_press": -1,
            "trial_index": 0,
            "trial_index_global": 262
        },
        {
            "rt": -1,
            "trial_type": "single-stim",
            "stimulus": "<div class = centerbox><p class = 'stroop-stim'>+</p></div>",
            "internal_chunk_id": "0-0.3-47",
            "time_elapsed": 173509,
            "key_press": -1,
            "trial_index": 0,
            "trial_index_global": 263
        },
        {
            "rt": 676,
            "trial_type": "single-stim",
            "stimulus": "<div class = centerbox><p class = stroop-stim style = \"color:green\">RED</p></div>",
            "internal_chunk_id": "0-0.3-47",
            "time_elapsed": 174326,
            "key_press": 71,
            "type": "stroop_infrequent",
            "trial_index": 0,
            "trial_index_global": 264
        },
        {
            "rt": -1,
            "trial_type": "single-stim",
            "stimulus": "",
            "internal_chunk_id": "0-0.3-47",
            "time_elapsed": 174579,
            "key_press": -1,
            "trial_index": 0,
            "trial_index_global": 265
        },
        {
            "rt": -1,
            "trial_type": "single-stim",
            "stimulus": "<div class = centerbox><p class = 'stroop-stim'>+</p></div>",
            "internal_chunk_id": "0-0.3-48",
            "time_elapsed": 174786,
            "key_press": -1,
            "trial_index": 0,
            "trial_index_global": 266
        },
        {
            "rt": 491,
            "trial_type": "single-stim",
            "stimulus": "<div class = centerbox><p class = stroop-stim style = \"color:green\">GREEN</p></div>",
            "internal_chunk_id": "0-0.3-48",
            "time_elapsed": 175396,
            "key_press": 71,
            "type": "stroop_infrequent",
            "trial_index": 0,
            "trial_index_global": 267
        },
        {
            "rt": -1,
            "trial_type": "single-stim",
            "stimulus": "",
            "internal_chunk_id": "0-0.3-48",
            "time_elapsed": 175649,
            "key_press": -1,
            "trial_index": 0,
            "trial_index_global": 268
        },
        {
            "rt": -1,
            "trial_type": "single-stim",
            "stimulus": "<div class = centerbox><p class = 'stroop-stim'>+</p></div>",
            "internal_chunk_id": "0-0.3-49",
            "time_elapsed": 175856,
            "key_press": -1,
            "trial_index": 0,
            "trial_index_global": 269
        },
        {
            "rt": 502,
            "trial_type": "single-stim",
            "stimulus": "<div class = centerbox><p class = stroop-stim style = \"color:green\">RED</p></div>",
            "internal_chunk_id": "0-0.3-49",
            "time_elapsed": 176474,
            "key_press": 71,
            "type": "stroop_infrequent",
            "trial_index": 0,
            "trial_index_global": 270
        },
        {
            "rt": -1,
            "trial_type": "single-stim",
            "stimulus": "",
            "internal_chunk_id": "0-0.3-49",
            "time_elapsed": 176726,
            "key_press": -1,
            "trial_index": 0,
            "trial_index_global": 271
        },
        {
            "rt": -1,
            "trial_type": "single-stim",
            "stimulus": "<div class = centerbox><p class = 'stroop-stim'>+</p></div>",
            "internal_chunk_id": "0-0.3-50",
            "time_elapsed": 176933,
            "key_press": -1,
            "trial_index": 0,
            "trial_index_global": 272
        },
        {
            "rt": 445,
            "trial_type": "single-stim",
            "stimulus": "<div class = centerbox><p class = stroop-stim style = \"color:green\">RED</p></div>",
            "internal_chunk_id": "0-0.3-50",
            "time_elapsed": 177502,
            "key_press": 71,
            "type": "stroop_infrequent",
            "trial_index": 0,
            "trial_index_global": 273
        },
        {
            "rt": -1,
            "trial_type": "single-stim",
            "stimulus": "",
            "internal_chunk_id": "0-0.3-50",
            "time_elapsed": 177754,
            "key_press": -1,
            "trial_index": 0,
            "trial_index_global": 274
        },
        {
            "rt": -1,
            "trial_type": "single-stim",
            "stimulus": "<div class = centerbox><p class = 'stroop-stim'>+</p></div>",
            "internal_chunk_id": "0-0.3-51",
            "time_elapsed": 177961,
            "key_press": -1,
            "trial_index": 0,
            "trial_index_global": 275
        },
        {
            "rt": 512,
            "trial_type": "single-stim",
            "stimulus": "<div class = centerbox><p class = stroop-stim style = \"color:blue\">BLUE</p></div>",
            "internal_chunk_id": "0-0.3-51",
            "time_elapsed": 178569,
            "key_press": 66,
            "type": "stroop_infrequent",
            "trial_index": 0,
            "trial_index_global": 276
        },
        {
            "rt": -1,
            "trial_type": "single-stim",
            "stimulus": "",
            "internal_chunk_id": "0-0.3-51",
            "time_elapsed": 178821,
            "key_press": -1,
            "trial_index": 0,
            "trial_index_global": 277
        },
        {
            "rt": -1,
            "trial_type": "single-stim",
            "stimulus": "<div class = centerbox><p class = 'stroop-stim'>+</p></div>",
            "internal_chunk_id": "0-0.3-52",
            "time_elapsed": 179029,
            "key_press": -1,
            "trial_index": 0,
            "trial_index_global": 278
        },
        {
            "rt": 899,
            "trial_type": "single-stim",
            "stimulus": "<div class = centerbox><p class = stroop-stim style = \"color:blue\">BLUE</p></div>",
            "internal_chunk_id": "0-0.3-52",
            "time_elapsed": 180102,
            "key_press": 66,
            "type": "stroop_infrequent",
            "trial_index": 0,
            "trial_index_global": 279
        },
        {
            "rt": -1,
            "trial_type": "single-stim",
            "stimulus": "",
            "internal_chunk_id": "0-0.3-52",
            "time_elapsed": 180354,
            "key_press": -1,
            "trial_index": 0,
            "trial_index_global": 280
        },
        {
            "rt": -1,
            "trial_type": "single-stim",
            "stimulus": "<div class = centerbox><p class = 'stroop-stim'>+</p></div>",
            "internal_chunk_id": "0-0.3-53",
            "time_elapsed": 180559,
            "key_press": -1,
            "trial_index": 0,
            "trial_index_global": 281
        },
        {
            "rt": 477,
            "trial_type": "single-stim",
            "stimulus": "<div class = centerbox><p class = stroop-stim style = \"color:red\">RED</p></div>",
            "internal_chunk_id": "0-0.3-53",
            "time_elapsed": 181200,
            "key_press": 82,
            "type": "stroop_infrequent",
            "trial_index": 0,
            "trial_index_global": 282
        },
        {
            "rt": -1,
            "trial_type": "single-stim",
            "stimulus": "",
            "internal_chunk_id": "0-0.3-53",
            "time_elapsed": 181452,
            "key_press": -1,
            "trial_index": 0,
            "trial_index_global": 283
        },
        {
            "rt": -1,
            "trial_type": "single-stim",
            "stimulus": "<div class = centerbox><p class = 'stroop-stim'>+</p></div>",
            "internal_chunk_id": "0-0.3-54",
            "time_elapsed": 181663,
            "key_press": -1,
            "trial_index": 0,
            "trial_index_global": 284
        },
        {
            "rt": 575,
            "trial_type": "single-stim",
            "stimulus": "<div class = centerbox><p class = stroop-stim style = \"color:red\">RED</p></div>",
            "internal_chunk_id": "0-0.3-54",
            "time_elapsed": 182367,
            "key_press": 82,
            "type": "stroop_infrequent",
            "trial_index": 0,
            "trial_index_global": 285
        },
        {
            "rt": -1,
            "trial_type": "single-stim",
            "stimulus": "",
            "internal_chunk_id": "0-0.3-54",
            "time_elapsed": 182620,
            "key_press": -1,
            "trial_index": 0,
            "trial_index_global": 286
        },
        {
            "rt": -1,
            "trial_type": "single-stim",
            "stimulus": "<div class = centerbox><p class = 'stroop-stim'>+</p></div>",
            "internal_chunk_id": "0-0.3-55",
            "time_elapsed": 182827,
            "key_press": -1,
            "trial_index": 0,
            "trial_index_global": 287
        },
        {
            "rt": 591,
            "trial_type": "single-stim",
            "stimulus": "<div class = centerbox><p class = stroop-stim style = \"color:green\">GREEN</p></div>",
            "internal_chunk_id": "0-0.3-55",
            "time_elapsed": 183547,
            "key_press": 71,
            "type": "stroop_infrequent",
            "trial_index": 0,
            "trial_index_global": 288
        },
        {
            "rt": -1,
            "trial_type": "single-stim",
            "stimulus": "",
