{
    "AutoApprovalTime": "2015-03-12T21:12:50Z",
    "AssignmentId": "3LYA37P8IQNDOH9PLWRMKMHZJX6BK2",
    "WorkerId": "A6JUX77CEBYYT",
    "AcceptTime": "2015-03-10T20:43:30Z",
    "HITId": "363A7XIFV4MJYY0GOJ0W20CPME0VAH",
    "Assignment": "",
    "answer": [
        {
            "rt": 12425,
            "trial_type": "text",
            "internal_chunk_id": "0-0",
            "time_elapsed": 12725,
            "key_press": 13,
            "trial_index": 0,
            "trial_index_global": 0
        },
        {
            "rt": -1,
            "trial_type": "single-stim",
            "stimulus": "<div class = centerbox><p class = 'stroop-stim'>+</p></div>",
            "internal_chunk_id": "0-0.1-0",
            "time_elapsed": 13933,
            "key_press": -1,
            "trial_index": 0,
            "trial_index_global": 1
        },
        {
            "rt": 1110,
            "trial_type": "single-stim",
            "stimulus": "<div class = centerbox><p class = stroop-stim style = \"color:blue\">BLUE</p></div>",
            "internal_chunk_id": "0-0.1-0",
            "time_elapsed": 15078,
            "key_press": 82,
            "type": "stroop_practice",
            "trial_index": 0,
            "trial_index_global": 2
        },
        {
            "rt": -1,
            "trial_type": "single-stim",
            "stimulus": "",
            "internal_chunk_id": "0-0.1-0",
            "time_elapsed": 15330,
            "key_press": -1,
            "trial_index": 0,
            "trial_index_global": 3
        },
        {
            "rt": -1,
            "trial_type": "single-stim",
            "stimulus": "<div class = centerbox><p class = stroop-stim>incorrect</p></div>",
            "internal_chunk_id": "0-0.1-0",
            "time_elapsed": 15833,
            "key_press": -1,
            "trial_index": 0,
            "trial_index_global": 4
        },
        {
            "rt": -1,
            "trial_type": "single-stim",
            "stimulus": "",
            "internal_chunk_id": "0-0.1-0",
            "time_elapsed": 16085,
            "key_press": -1,
            "trial_index": 0,
            "trial_index_global": 5
        },
        {
            "rt": -1,
            "trial_type": "single-stim",
            "stimulus": "<div class = centerbox><p class = 'stroop-stim'>+</p></div>",
            "internal_chunk_id": "0-0.1-1",
            "time_elapsed": 16287,
            "key_press": -1,
            "trial_index": 0,
            "trial_index_global": 6
        },
        {
            "rt": 1244,
            "trial_type": "single-stim",
            "stimulus": "<div class = centerbox><p class = stroop-stim style = \"color:green\">BLUE</p></div>",
            "internal_chunk_id": "0-0.1-1",
            "time_elapsed": 17648,
            "key_press": 71,
            "type": "stroop_practice",
            "trial_index": 0,
            "trial_index_global": 7
        },
        {
            "rt": -1,
            "trial_type": "single-stim",
            "stimulus": "",
            "internal_chunk_id": "0-0.1-1",
            "time_elapsed": 17903,
            "key_press": -1,
            "trial_index": 0,
            "trial_index_global": 8
        },
        {
            "rt": -1,
            "trial_type": "single-stim",
            "stimulus": "<div class = centerbox><p class = stroop-stim>correct</p></div>",
            "internal_chunk_id": "0-0.1-1",
            "time_elapsed": 18405,
            "key_press": -1,
            "trial_index": 0,
            "trial_index_global": 9
        },
        {
            "rt": -1,
            "trial_type": "single-stim",
            "stimulus": "",
            "internal_chunk_id": "0-0.1-1",
            "time_elapsed": 18657,
            "key_press": -1,
            "trial_index": 0,
            "trial_index_global": 10
        },
        {
            "rt": -1,
            "trial_type": "single-stim",
            "stimulus": "<div class = centerbox><p class = 'stroop-stim'>+</p></div>",
            "internal_chunk_id": "0-0.1-2",
            "time_elapsed": 18858,
            "key_press": -1,
            "trial_index": 0,
            "trial_index_global": 11
        },
        {
            "rt": 1032,
            "trial_type": "single-stim",
            "stimulus": "<div class = centerbox><p class = stroop-stim style = \"color:red\">BLUE</p></div>",
            "internal_chunk_id": "0-0.1-2",
            "time_elapsed": 20044,
            "key_press": 82,
            "type": "stroop_practice",
            "trial_index": 0,
            "trial_index_global": 12
        },
        {
            "rt": -1,
            "trial_type": "single-stim",
            "stimulus": "",
            "internal_chunk_id": "0-0.1-2",
            "time_elapsed": 20296,
            "key_press": -1,
            "trial_index": 0,
            "trial_index_global": 13
        },
        {
            "rt": -1,
            "trial_type": "single-stim",
            "stimulus": "<div class = centerbox><p class = stroop-stim>correct</p></div>",
            "internal_chunk_id": "0-0.1-2",
            "time_elapsed": 20797,
            "key_press": -1,
            "trial_index": 0,
            "trial_index_global": 14
        },
        {
            "rt": -1,
            "trial_type": "single-stim",
            "stimulus": "",
            "internal_chunk_id": "0-0.1-2",
            "time_elapsed": 21049,
            "key_press": -1,
            "trial_index": 0,
            "trial_index_global": 15
        },
        {
            "rt": -1,
            "trial_type": "single-stim",
            "stimulus": "<div class = centerbox><p class = 'stroop-stim'>+</p></div>",
            "internal_chunk_id": "0-0.1-3",
            "time_elapsed": 21252,
            "key_press": -1,
            "trial_index": 0,
            "trial_index_global": 16
        },
        {
            "rt": 848,
            "trial_type": "single-stim",
            "stimulus": "<div class = centerbox><p class = stroop-stim style = \"color:red\">BLUE</p></div>",
            "internal_chunk_id": "0-0.1-3",
            "time_elapsed": 22232,
            "key_press": 82,
            "type": "stroop_practice",
            "trial_index": 0,
            "trial_index_global": 17
        },
        {
            "rt": -1,
            "trial_type": "single-stim",
            "stimulus": "",
            "internal_chunk_id": "0-0.1-3",
            "time_elapsed": 22484,
            "key_press": -1,
            "trial_index": 0,
            "trial_index_global": 18
        },
        {
            "rt": -1,
            "trial_type": "single-stim",
            "stimulus": "<div class = centerbox><p class = stroop-stim>correct</p></div>",
            "internal_chunk_id": "0-0.1-3",
            "time_elapsed": 22986,
            "key_press": -1,
            "trial_index": 0,
            "trial_index_global": 19
        },
        {
            "rt": -1,
            "trial_type": "single-stim",
            "stimulus": "",
            "internal_chunk_id": "0-0.1-3",
            "time_elapsed": 23238,
            "key_press": -1,
            "trial_index": 0,
            "trial_index_global": 20
        },
        {
            "rt": -1,
            "trial_type": "single-stim",
            "stimulus": "<div class = centerbox><p class = 'stroop-stim'>+</p></div>",
            "internal_chunk_id": "0-0.1-4",
            "time_elapsed": 23440,
            "key_press": -1,
            "trial_index": 0,
            "trial_index_global": 21
        },
        {
            "rt": 1461,
            "trial_type": "single-stim",
            "stimulus": "<div class = centerbox><p class = stroop-stim style = \"color:green\">RED</p></div>",
            "internal_chunk_id": "0-0.1-4",
            "time_elapsed": 24996,
            "key_press": 71,
            "type": "stroop_practice",
            "trial_index": 0,
            "trial_index_global": 22
        },
        {
            "rt": -1,
            "trial_type": "single-stim",
            "stimulus": "",
            "internal_chunk_id": "0-0.1-4",
            "time_elapsed": 25249,
            "key_press": -1,
            "trial_index": 0,
            "trial_index_global": 23
        },
        {
            "rt": -1,
            "trial_type": "single-stim",
            "stimulus": "<div class = centerbox><p class = stroop-stim>correct</p></div>",
            "internal_chunk_id": "0-0.1-4",
            "time_elapsed": 25751,
            "key_press": -1,
            "trial_index": 0,
            "trial_index_global": 24
        },
        {
            "rt": -1,
            "trial_type": "single-stim",
            "stimulus": "",
            "internal_chunk_id": "0-0.1-4",
            "time_elapsed": 26003,
            "key_press": -1,
            "trial_index": 0,
            "trial_index_global": 25
        },
        {
            "rt": -1,
            "trial_type": "single-stim",
            "stimulus": "<div class = centerbox><p class = 'stroop-stim'>+</p></div>",
            "internal_chunk_id": "0-0.1-5",
            "time_elapsed": 26207,
            "key_press": -1,
            "trial_index": 0,
            "trial_index_global": 26
        },
        {
            "rt": 1128,
            "trial_type": "single-stim",
            "stimulus": "<div class = centerbox><p class = stroop-stim style = \"color:blue\">GREEN</p></div>",
            "internal_chunk_id": "0-0.1-5",
            "time_elapsed": 27467,
            "key_press": 66,
            "type": "stroop_practice",
            "trial_index": 0,
            "trial_index_global": 27
        },
        {
            "rt": -1,
            "trial_type": "single-stim",
            "stimulus": "",
            "internal_chunk_id": "0-0.1-5",
            "time_elapsed": 27718,
            "key_press": -1,
            "trial_index": 0,
            "trial_index_global": 28
        },
        {
            "rt": -1,
            "trial_type": "single-stim",
            "stimulus": "<div class = centerbox><p class = stroop-stim>correct</p></div>",
            "internal_chunk_id": "0-0.1-5",
            "time_elapsed": 28222,
            "key_press": -1,
            "trial_index": 0,
            "trial_index_global": 29
        },
        {
            "rt": -1,
            "trial_type": "single-stim",
            "stimulus": "",
            "internal_chunk_id": "0-0.1-5",
            "time_elapsed": 28473,
            "key_press": -1,
            "trial_index": 0,
            "trial_index_global": 30
        },
        {
            "rt": -1,
            "trial_type": "single-stim",
            "stimulus": "<div class = centerbox><p class = 'stroop-stim'>+</p></div>",
            "internal_chunk_id": "0-0.1-6",
            "time_elapsed": 28676,
            "key_press": -1,
            "trial_index": 0,
            "trial_index_global": 31
        },
        {
            "rt": 977,
            "trial_type": "single-stim",
            "stimulus": "<div class = centerbox><p class = stroop-stim style = \"color:green\">GREEN</p></div>",
            "internal_chunk_id": "0-0.1-6",
            "time_elapsed": 29837,
            "key_press": 71,
            "type": "stroop_practice",
            "trial_index": 0,
            "trial_index_global": 32
        },
        {
            "rt": -1,
            "trial_type": "single-stim",
            "stimulus": "",
            "internal_chunk_id": "0-0.1-6",
            "time_elapsed": 30090,
            "key_press": -1,
            "trial_index": 0,
            "trial_index_global": 33
        },
        {
            "rt": -1,
            "trial_type": "single-stim",
            "stimulus": "<div class = centerbox><p class = stroop-stim>correct</p></div>",
            "internal_chunk_id": "0-0.1-6",
            "time_elapsed": 30592,
            "key_press": -1,
            "trial_index": 0,
            "trial_index_global": 34
        },
        {
            "rt": -1,
            "trial_type": "single-stim",
            "stimulus": "",
            "internal_chunk_id": "0-0.1-6",
            "time_elapsed": 30844,
            "key_press": -1,
            "trial_index": 0,
            "trial_index_global": 35
        },
        {
            "rt": -1,
            "trial_type": "single-stim",
            "stimulus": "<div class = centerbox><p class = 'stroop-stim'>+</p></div>",
            "internal_chunk_id": "0-0.1-7",
            "time_elapsed": 31046,
            "key_press": -1,
            "trial_index": 0,
            "trial_index_global": 36
        },
        {
            "rt": 1172,
            "trial_type": "single-stim",
            "stimulus": "<div class = centerbox><p class = stroop-stim style = \"color:blue\">BLUE</p></div>",
            "internal_chunk_id": "0-0.1-7",
            "time_elapsed": 32383,
            "key_press": 66,
            "type": "stroop_practice",
            "trial_index": 0,
            "trial_index_global": 37
        },
        {
            "rt": -1,
            "trial_type": "single-stim",
            "stimulus": "",
            "internal_chunk_id": "0-0.1-7",
            "time_elapsed": 32635,
            "key_press": -1,
            "trial_index": 0,
            "trial_index_global": 38
        },
        {
            "rt": -1,
            "trial_type": "single-stim",
            "stimulus": "<div class = centerbox><p class = stroop-stim>correct</p></div>",
            "internal_chunk_id": "0-0.1-7",
            "time_elapsed": 33137,
            "key_press": -1,
            "trial_index": 0,
            "trial_index_global": 39
        },
        {
            "rt": -1,
            "trial_type": "single-stim",
            "stimulus": "",
            "internal_chunk_id": "0-0.1-7",
            "time_elapsed": 33388,
            "key_press": -1,
            "trial_index": 0,
            "trial_index_global": 40
        },
        {
            "rt": -1,
            "trial_type": "single-stim",
            "stimulus": "<div class = centerbox><p class = 'stroop-stim'>+</p></div>",
            "internal_chunk_id": "0-0.1-8",
            "time_elapsed": 33590,
            "key_press": -1,
            "trial_index": 0,
            "trial_index_global": 41
        },
        {
            "rt": 651,
            "trial_type": "single-stim",
            "stimulus": "<div class = centerbox><p class = stroop-stim style = \"color:red\">RED</p></div>",
            "internal_chunk_id": "0-0.1-8",
            "time_elapsed": 34389,
            "key_press": 82,
            "type": "stroop_practice",
            "trial_index": 0,
            "trial_index_global": 42
        },
        {
            "rt": -1,
            "trial_type": "single-stim",
            "stimulus": "",
            "internal_chunk_id": "0-0.1-8",
            "time_elapsed": 34641,
            "key_press": -1,
            "trial_index": 0,
            "trial_index_global": 43
        },
        {
            "rt": -1,
            "trial_type": "single-stim",
            "stimulus": "<div class = centerbox><p class = stroop-stim>correct</p></div>",
            "internal_chunk_id": "0-0.1-8",
            "time_elapsed": 35143,
            "key_press": -1,
            "trial_index": 0,
            "trial_index_global": 44
        },
        {
            "rt": -1,
            "trial_type": "single-stim",
            "stimulus": "",
            "internal_chunk_id": "0-0.1-8",
            "time_elapsed": 35394,
            "key_press": -1,
            "trial_index": 0,
            "trial_index_global": 45
        },
        {
            "rt": -1,
            "trial_type": "single-stim",
            "stimulus": "<div class = centerbox><p class = 'stroop-stim'>+</p></div>",
            "internal_chunk_id": "0-0.1-9",
            "time_elapsed": 35595,
            "key_press": -1,
            "trial_index": 0,
            "trial_index_global": 46
        },
        {
            "rt": 758,
            "trial_type": "single-stim",
            "stimulus": "<div class = centerbox><p class = stroop-stim style = \"color:green\">RED</p></div>",
            "internal_chunk_id": "0-0.1-9",
            "time_elapsed": 36416,
            "key_press": 71,
            "type": "stroop_practice",
            "trial_index": 0,
            "trial_index_global": 47
        },
        {
            "rt": -1,
            "trial_type": "single-stim",
            "stimulus": "",
            "internal_chunk_id": "0-0.1-9",
            "time_elapsed": 36669,
            "key_press": -1,
            "trial_index": 0,
            "trial_index_global": 48
        },
        {
            "rt": -1,
            "trial_type": "single-stim",
            "stimulus": "<div class = centerbox><p class = stroop-stim>correct</p></div>",
            "internal_chunk_id": "0-0.1-9",
            "time_elapsed": 37172,
            "key_press": -1,
            "trial_index": 0,
            "trial_index_global": 49
        },
        {
            "rt": -1,
            "trial_type": "single-stim",
            "stimulus": "",
            "internal_chunk_id": "0-0.1-9",
            "time_elapsed": 37424,
            "key_press": -1,
            "trial_index": 0,
            "trial_index_global": 50
        },
        {
            "rt": -1,
            "trial_type": "single-stim",
            "stimulus": "<div class = centerbox><p class = 'stroop-stim'>+</p></div>",
            "internal_chunk_id": "0-0.1-10",
            "time_elapsed": 37627,
            "key_press": -1,
            "trial_index": 0,
            "trial_index_global": 51
        },
        {
            "rt": 700,
            "trial_type": "single-stim",
            "stimulus": "<div class = centerbox><p class = stroop-stim style = \"color:green\">GREEN</p></div>",
            "internal_chunk_id": "0-0.1-10",
            "time_elapsed": 38388,
            "key_press": 71,
            "type": "stroop_practice",
            "trial_index": 0,
            "trial_index_global": 52
        },
        {
            "rt": -1,
            "trial_type": "single-stim",
            "stimulus": "",
            "internal_chunk_id": "0-0.1-10",
            "time_elapsed": 38640,
            "key_press": -1,
            "trial_index": 0,
            "trial_index_global": 53
        },
        {
            "rt": -1,
            "trial_type": "single-stim",
            "stimulus": "<div class = centerbox><p class = stroop-stim>correct</p></div>",
            "internal_chunk_id": "0-0.1-10",
            "time_elapsed": 39142,
            "key_press": -1,
            "trial_index": 0,
            "trial_index_global": 54
        },
        {
            "rt": -1,
            "trial_type": "single-stim",
            "stimulus": "",
            "internal_chunk_id": "0-0.1-10",
            "time_elapsed": 39393,
            "key_press": -1,
            "trial_index": 0,
            "trial_index_global": 55
        },
        {
            "rt": -1,
            "trial_type": "single-stim",
            "stimulus": "<div class = centerbox><p class = 'stroop-stim'>+</p></div>",
            "internal_chunk_id": "0-0.1-11",
            "time_elapsed": 39595,
            "key_press": -1,
            "trial_index": 0,
            "trial_index_global": 56
        },
        {
            "rt": 532,
            "trial_type": "single-stim",
            "stimulus": "<div class = centerbox><p class = stroop-stim style = \"color:blue\">BLUE</p></div>",
            "internal_chunk_id": "0-0.1-11",
            "time_elapsed": 40265,
            "key_press": 66,
            "type": "stroop_practice",
            "trial_index": 0,
            "trial_index_global": 57
        },
        {
            "rt": -1,
            "trial_type": "single-stim",
            "stimulus": "",
            "internal_chunk_id": "0-0.1-11",
            "time_elapsed": 40517,
            "key_press": -1,
            "trial_index": 0,
            "trial_index_global": 58
        },
        {
            "rt": -1,
            "trial_type": "single-stim",
            "stimulus": "<div class = centerbox><p class = stroop-stim>correct</p></div>",
            "internal_chunk_id": "0-0.1-11",
            "time_elapsed": 41019,
            "key_press": -1,
            "trial_index": 0,
            "trial_index_global": 59
        },
        {
            "rt": -1,
            "trial_type": "single-stim",
            "stimulus": "",
            "internal_chunk_id": "0-0.1-11",
            "time_elapsed": 41271,
            "key_press": -1,
            "trial_index": 0,
            "trial_index_global": 60
        },
        {
            "rt": -1,
            "trial_type": "single-stim",
            "stimulus": "<div class = centerbox><p class = 'stroop-stim'>+</p></div>",
            "internal_chunk_id": "0-0.1-12",
            "time_elapsed": 41476,
            "key_press": -1,
            "trial_index": 0,
            "trial_index_global": 61
        },
        {
            "rt": 476,
            "trial_type": "single-stim",
            "stimulus": "<div class = centerbox><p class = stroop-stim style = \"color:red\">RED</p></div>",
            "internal_chunk_id": "0-0.1-12",
            "time_elapsed": 42083,
            "key_press": 82,
            "type": "stroop_practice",
            "trial_index": 0,
            "trial_index_global": 62
        },
        {
            "rt": -1,
            "trial_type": "single-stim",
            "stimulus": "",
            "internal_chunk_id": "0-0.1-12",
            "time_elapsed": 42334,
            "key_press": -1,
            "trial_index": 0,
            "trial_index_global": 63
        },
        {
            "rt": -1,
            "trial_type": "single-stim",
            "stimulus": "<div class = centerbox><p class = stroop-stim>correct</p></div>",
            "internal_chunk_id": "0-0.1-12",
            "time_elapsed": 42836,
            "key_press": -1,
            "trial_index": 0,
            "trial_index_global": 64
        },
        {
            "rt": -1,
            "trial_type": "single-stim",
            "stimulus": "",
            "internal_chunk_id": "0-0.1-12",
            "time_elapsed": 43088,
            "key_press": -1,
            "trial_index": 0,
            "trial_index_global": 65
        },
        {
            "rt": -1,
            "trial_type": "single-stim",
            "stimulus": "<div class = centerbox><p class = 'stroop-stim'>+</p></div>",
            "internal_chunk_id": "0-0.1-13",
            "time_elapsed": 43291,
            "key_press": -1,
            "trial_index": 0,
            "trial_index_global": 66
        },
        {
            "rt": 890,
            "trial_type": "single-stim",
            "stimulus": "<div class = centerbox><p class = stroop-stim style = \"color:green\">GREEN</p></div>",
            "internal_chunk_id": "0-0.1-13",
            "time_elapsed": 44263,
            "key_press": 71,
            "type": "stroop_practice",
            "trial_index": 0,
            "trial_index_global": 67
        },
        {
            "rt": -1,
            "trial_type": "single-stim",
            "stimulus": "",
            "internal_chunk_id": "0-0.1-13",
            "time_elapsed": 44514,
            "key_press": -1,
            "trial_index": 0,
            "trial_index_global": 68
        },
        {
            "rt": -1,
            "trial_type": "single-stim",
            "stimulus": "<div class = centerbox><p class = stroop-stim>correct</p></div>",
            "internal_chunk_id": "0-0.1-13",
            "time_elapsed": 45017,
            "key_press": -1,
            "trial_index": 0,
            "trial_index_global": 69
        },
        {
            "rt": -1,
            "trial_type": "single-stim",
            "stimulus": "",
            "internal_chunk_id": "0-0.1-13",
            "time_elapsed": 45269,
            "key_press": -1,
            "trial_index": 0,
            "trial_index_global": 70
        },
        {
            "rt": -1,
            "trial_type": "single-stim",
            "stimulus": "<div class = centerbox><p class = 'stroop-stim'>+</p></div>",
            "internal_chunk_id": "0-0.1-14",
            "time_elapsed": 45477,
            "key_press": -1,
            "trial_index": 0,
            "trial_index_global": 71
        },
        {
            "rt": 848,
            "trial_type": "single-stim",
            "stimulus": "<div class = centerbox><p class = stroop-stim style = \"color:blue\">GREEN</p></div>",
            "internal_chunk_id": "0-0.1-14",
            "time_elapsed": 46453,
            "key_press": 66,
            "type": "stroop_practice",
            "trial_index": 0,
            "trial_index_global": 72
        },
        {
            "rt": -1,
            "trial_type": "single-stim",
            "stimulus": "",
            "internal_chunk_id": "0-0.1-14",
            "time_elapsed": 46705,
            "key_press": -1,
            "trial_index": 0,
            "trial_index_global": 73
        },
        {
            "rt": -1,
            "trial_type": "single-stim",
            "stimulus": "<div class = centerbox><p class = stroop-stim>correct</p></div>",
            "internal_chunk_id": "0-0.1-14",
            "time_elapsed": 47208,
            "key_press": -1,
            "trial_index": 0,
            "trial_index_global": 74
        },
        {
            "rt": -1,
            "trial_type": "single-stim",
            "stimulus": "",
            "internal_chunk_id": "0-0.1-14",
            "time_elapsed": 47459,
            "key_press": -1,
            "trial_index": 0,
            "trial_index_global": 75
        },
        {
            "rt": -1,
            "trial_type": "single-stim",
            "stimulus": "<div class = centerbox><p class = 'stroop-stim'>+</p></div>",
            "internal_chunk_id": "0-0.1-15",
            "time_elapsed": 47661,
            "key_press": -1,
            "trial_index": 0,
            "trial_index_global": 76
        },
        {
            "rt": 478,
            "trial_type": "single-stim",
            "stimulus": "<div class = centerbox><p class = stroop-stim style = \"color:red\">RED</p></div>",
            "internal_chunk_id": "0-0.1-15",
            "time_elapsed": 48274,
            "key_press": 82,
            "type": "stroop_practice",
            "trial_index": 0,
            "trial_index_global": 77
        },
        {
            "rt": -1,
            "trial_type": "single-stim",
            "stimulus": "",
            "internal_chunk_id": "0-0.1-15",
            "time_elapsed": 48526,
            "key_press": -1,
            "trial_index": 0,
            "trial_index_global": 78
        },
        {
            "rt": -1,
            "trial_type": "single-stim",
            "stimulus": "<div class = centerbox><p class = stroop-stim>correct</p></div>",
            "internal_chunk_id": "0-0.1-15",
            "time_elapsed": 49028,
            "key_press": -1,
            "trial_index": 0,
            "trial_index_global": 79
        },
        {
            "rt": -1,
            "trial_type": "single-stim",
            "stimulus": "",
            "internal_chunk_id": "0-0.1-15",
            "time_elapsed": 49281,
            "key_press": -1,
            "trial_index": 0,
            "trial_index_global": 80
        },
        {
            "rt": -1,
            "trial_type": "single-stim",
            "stimulus": "<div class = centerbox><p class = 'stroop-stim'>+</p></div>",
            "internal_chunk_id": "0-0.1-16",
            "time_elapsed": 49483,
            "key_press": -1,
            "trial_index": 0,
            "trial_index_global": 81
        },
        {
            "rt": 546,
            "trial_type": "single-stim",
            "stimulus": "<div class = centerbox><p class = stroop-stim style = \"color:green\">GREEN</p></div>",
            "internal_chunk_id": "0-0.1-16",
            "time_elapsed": 50158,
            "key_press": 71,
            "type": "stroop_practice",
            "trial_index": 0,
            "trial_index_global": 82
        },
        {
            "rt": -1,
            "trial_type": "single-stim",
            "stimulus": "",
            "internal_chunk_id": "0-0.1-16",
            "time_elapsed": 50410,
            "key_press": -1,
            "trial_index": 0,
            "trial_index_global": 83
        },
        {
            "rt": -1,
            "trial_type": "single-stim",
            "stimulus": "<div class = centerbox><p class = stroop-stim>correct</p></div>",
            "internal_chunk_id": "0-0.1-16",
            "time_elapsed": 50912,
            "key_press": -1,
            "trial_index": 0,
            "trial_index_global": 84
        },
        {
            "rt": -1,
            "trial_type": "single-stim",
            "stimulus": "",
            "internal_chunk_id": "0-0.1-16",
            "time_elapsed": 51164,
            "key_press": -1,
            "trial_index": 0,
            "trial_index_global": 85
        },
        {
            "rt": -1,
            "trial_type": "single-stim",
            "stimulus": "<div class = centerbox><p class = 'stroop-stim'>+</p></div>",
            "internal_chunk_id": "0-0.1-17",
            "time_elapsed": 51367,
            "key_press": -1,
            "trial_index": 0,
            "trial_index_global": 86
        },
        {
            "rt": 776,
            "trial_type": "single-stim",
            "stimulus": "<div class = centerbox><p class = stroop-stim style = \"color:green\">BLUE</p></div>",
            "internal_chunk_id": "0-0.1-17",
            "time_elapsed": 52232,
            "key_press": 71,
            "type": "stroop_practice",
            "trial_index": 0,
            "trial_index_global": 87
        },
        {
            "rt": -1,
            "trial_type": "single-stim",
            "stimulus": "",
            "internal_chunk_id": "0-0.1-17",
            "time_elapsed": 52484,
            "key_press": -1,
            "trial_index": 0,
            "trial_index_global": 88
        },
        {
            "rt": -1,
            "trial_type": "single-stim",
            "stimulus": "<div class = centerbox><p class = stroop-stim>correct</p></div>",
            "internal_chunk_id": "0-0.1-17",
            "time_elapsed": 52987,
            "key_press": -1,
            "trial_index": 0,
            "trial_index_global": 89
        },
        {
            "rt": -1,
            "trial_type": "single-stim",
            "stimulus": "",
            "internal_chunk_id": "0-0.1-17",
            "time_elapsed": 53239,
            "key_press": -1,
            "trial_index": 0,
            "trial_index_global": 90
        },
        {
            "rt": -1,
            "trial_type": "single-stim",
            "stimulus": "<div class = centerbox><p class = 'stroop-stim'>+</p></div>",
            "internal_chunk_id": "0-0.1-18",
            "time_elapsed": 53441,
            "key_press": -1,
            "trial_index": 0,
            "trial_index_global": 91
        },
        {
            "rt": 1039,
            "trial_type": "single-stim",
            "stimulus": "<div class = centerbox><p class = stroop-stim style = \"color:blue\">RED</p></div>",
            "internal_chunk_id": "0-0.1-18",
            "time_elapsed": 54556,
            "key_press": 66,
            "type": "stroop_practice",
            "trial_index": 0,
            "trial_index_global": 92
        },
        {
            "rt": -1,
            "trial_type": "single-stim",
            "stimulus": "",
            "internal_chunk_id": "0-0.1-18",
            "time_elapsed": 54810,
            "key_press": -1,
            "trial_index": 0,
            "trial_index_global": 93
        },
        {
            "rt": -1,
            "trial_type": "single-stim",
            "stimulus": "<div class = centerbox><p class = stroop-stim>correct</p></div>",
            "internal_chunk_id": "0-0.1-18",
            "time_elapsed": 55313,
            "key_press": -1,
            "trial_index": 0,
            "trial_index_global": 94
        },
        {
            "rt": -1,
            "trial_type": "single-stim",
            "stimulus": "",
            "internal_chunk_id": "0-0.1-18",
            "time_elapsed": 55564,
            "key_press": -1,
            "trial_index": 0,
            "trial_index_global": 95
        },
        {
            "rt": -1,
            "trial_type": "single-stim",
            "stimulus": "<div class = centerbox><p class = 'stroop-stim'>+</p></div>",
            "internal_chunk_id": "0-0.1-19",
            "time_elapsed": 55767,
            "key_press": -1,
            "trial_index": 0,
            "trial_index_global": 96
        },
        {
            "rt": 577,
            "trial_type": "single-stim",
            "stimulus": "<div class = centerbox><p class = stroop-stim style = \"color:blue\">BLUE</p></div>",
            "internal_chunk_id": "0-0.1-19",
            "time_elapsed": 56497,
            "key_press": 66,
            "type": "stroop_practice",
            "trial_index": 0,
            "trial_index_global": 97
        },
        {
            "rt": -1,
            "trial_type": "single-stim",
            "stimulus": "",
            "internal_chunk_id": "0-0.1-19",
            "time_elapsed": 56748,
            "key_press": -1,
            "trial_index": 0,
            "trial_index_global": 98
        },
        {
            "rt": -1,
            "trial_type": "single-stim",
            "stimulus": "<div class = centerbox><p class = stroop-stim>correct</p></div>",
            "internal_chunk_id": "0-0.1-19",
            "time_elapsed": 57251,
            "key_press": -1,
            "trial_index": 0,
            "trial_index_global": 99
        },
        {
            "rt": -1,
            "trial_type": "single-stim",
            "stimulus": "",
            "internal_chunk_id": "0-0.1-19",
            "time_elapsed": 57503,
            "key_press": -1,
            "trial_index": 0,
            "trial_index_global": 100
        },
        {
            "rt": -1,
            "trial_type": "single-stim",
            "stimulus": "<div class = centerbox><p class = 'stroop-stim'>+</p></div>",
            "internal_chunk_id": "0-0.1-20",
            "time_elapsed": 57707,
            "key_press": -1,
            "trial_index": 0,
            "trial_index_global": 101
        },
        {
            "rt": 665,
            "trial_type": "single-stim",
            "stimulus": "<div class = centerbox><p class = stroop-stim style = \"color:blue\">RED</p></div>",
            "internal_chunk_id": "0-0.1-20",
            "time_elapsed": 58500,
            "key_press": 66,
            "type": "stroop_practice",
            "trial_index": 0,
            "trial_index_global": 102
        },
        {
            "rt": -1,
            "trial_type": "single-stim",
            "stimulus": "",
            "internal_chunk_id": "0-0.1-20",
            "time_elapsed": 58752,
            "key_press": -1,
            "trial_index": 0,
            "trial_index_global": 103
        },
        {
            "rt": -1,
            "trial_type": "single-stim",
            "stimulus": "<div class = centerbox><p class = stroop-stim>correct</p></div>",
            "internal_chunk_id": "0-0.1-20",
            "time_elapsed": 59255,
            "key_press": -1,
            "trial_index": 0,
            "trial_index_global": 104
        },
        {
            "rt": -1,
            "trial_type": "single-stim",
            "stimulus": "",
            "internal_chunk_id": "0-0.1-20",
            "time_elapsed": 59506,
            "key_press": -1,
            "trial_index": 0,
            "trial_index_global": 105
        },
        {
            "rt": -1,
            "trial_type": "single-stim",
            "stimulus": "<div class = centerbox><p class = 'stroop-stim'>+</p></div>",
            "internal_chunk_id": "0-0.1-21",
            "time_elapsed": 59709,
            "key_press": -1,
            "trial_index": 0,
            "trial_index_global": 106
        },
        {
            "rt": 824,
            "trial_type": "single-stim",
            "stimulus": "<div class = centerbox><p class = stroop-stim style = \"color:red\">GREEN</p></div>",
            "internal_chunk_id": "0-0.1-21",
            "time_elapsed": 60671,
            "key_press": 82,
            "type": "stroop_practice",
            "trial_index": 0,
            "trial_index_global": 107
        },
        {
            "rt": -1,
            "trial_type": "single-stim",
            "stimulus": "",
            "internal_chunk_id": "0-0.1-21",
            "time_elapsed": 60924,
            "key_press": -1,
            "trial_index": 0,
            "trial_index_global": 108
        },
        {
            "rt": -1,
            "trial_type": "single-stim",
            "stimulus": "<div class = centerbox><p class = stroop-stim>correct</p></div>",
            "internal_chunk_id": "0-0.1-21",
            "time_elapsed": 61441,
            "key_press": -1,
            "trial_index": 0,
            "trial_index_global": 109
        },
        {
            "rt": -1,
            "trial_type": "single-stim",
            "stimulus": "",
            "internal_chunk_id": "0-0.1-21",
            "time_elapsed": 61693,
            "key_press": -1,
            "trial_index": 0,
            "trial_index_global": 110
        },
        {
            "rt": -1,
            "trial_type": "single-stim",
            "stimulus": "<div class = centerbox><p class = 'stroop-stim'>+</p></div>",
            "internal_chunk_id": "0-0.1-22",
            "time_elapsed": 61898,
            "key_press": -1,
            "trial_index": 0,
            "trial_index_global": 111
        },
        {
            "rt": 717,
            "trial_type": "single-stim",
            "stimulus": "<div class = centerbox><p class = stroop-stim style = \"color:red\">GREEN</p></div>",
            "internal_chunk_id": "0-0.1-22",
            "time_elapsed": 62779,
            "key_press": 82,
            "type": "stroop_practice",
            "trial_index": 0,
            "trial_index_global": 112
        },
        {
            "rt": -1,
            "trial_type": "single-stim",
            "stimulus": "",
            "internal_chunk_id": "0-0.1-22",
            "time_elapsed": 63031,
            "key_press": -1,
            "trial_index": 0,
            "trial_index_global": 113
        },
        {
            "rt": -1,
            "trial_type": "single-stim",
            "stimulus": "<div class = centerbox><p class = stroop-stim>correct</p></div>",
            "internal_chunk_id": "0-0.1-22",
            "time_elapsed": 63535,
            "key_press": -1,
            "trial_index": 0,
            "trial_index_global": 114
        },
        {
            "rt": -1,
            "trial_type": "single-stim",
            "stimulus": "",
            "internal_chunk_id": "0-0.1-22",
            "time_elapsed": 63786,
            "key_press": -1,
            "trial_index": 0,
            "trial_index_global": 115
        },
        {
            "rt": -1,
            "trial_type": "single-stim",
            "stimulus": "<div class = centerbox><p class = 'stroop-stim'>+</p></div>",
            "internal_chunk_id": "0-0.1-23",
            "time_elapsed": 63988,
            "key_press": -1,
            "trial_index": 0,
            "trial_index_global": 116
        },
        {
            "rt": 612,
            "trial_type": "single-stim",
            "stimulus": "<div class = centerbox><p class = stroop-stim style = \"color:red\">RED</p></div>",
            "internal_chunk_id": "0-0.1-23",
            "time_elapsed": 64759,
            "key_press": 82,
            "type": "stroop_practice",
            "trial_index": 0,
            "trial_index_global": 117
        },
        {
            "rt": -1,
            "trial_type": "single-stim",
            "stimulus": "",
            "internal_chunk_id": "0-0.1-23",
            "time_elapsed": 65010,
            "key_press": -1,
            "trial_index": 0,
            "trial_index_global": 118
        },
        {
            "rt": -1,
            "trial_type": "single-stim",
            "stimulus": "<div class = centerbox><p class = stroop-stim>correct</p></div>",
            "internal_chunk_id": "0-0.1-23",
            "time_elapsed": 65513,
            "key_press": -1,
            "trial_index": 0,
            "trial_index_global": 119
        },
        {
            "rt": -1,
            "trial_type": "single-stim",
            "stimulus": "",
            "internal_chunk_id": "0-0.1-23",
            "time_elapsed": 65764,
            "key_press": -1,
            "trial_index": 0,
            "trial_index_global": 120
        },
        {
            "rt": 2463,
            "trial_type": "text",
            "internal_chunk_id": "0-0",
            "time_elapsed": 68421,
            "key_press": 13,
            "trial_index": 0,
            "trial_index_global": 121
        },
        {
            "rt": -1,
            "trial_type": "single-stim",
            "stimulus": "<div class = centerbox><p class = 'stroop-stim'>+</p></div>",
            "internal_chunk_id": "0-0.3-0",
            "time_elapsed": 69627,
            "key_press": -1,
            "trial_index": 0,
            "trial_index_global": 122
        },
        {
            "rt": 912,
            "trial_type": "single-stim",
            "stimulus": "<div class = centerbox><p class = stroop-stim style = \"color:red\">BLUE</p></div>",
            "internal_chunk_id": "0-0.3-0",
            "time_elapsed": 70710,
            "key_press": 82,
            "type": "stroop_frequent",
            "trial_index": 0,
            "trial_index_global": 123
        },
        {
            "rt": -1,
            "trial_type": "single-stim",
            "stimulus": "",
            "internal_chunk_id": "0-0.3-0",
            "time_elapsed": 70961,
            "key_press": -1,
            "trial_index": 0,
            "trial_index_global": 124
        },
        {
            "rt": -1,
            "trial_type": "single-stim",
            "stimulus": "<div class = centerbox><p class = 'stroop-stim'>+</p></div>",
            "internal_chunk_id": "0-0.3-1",
            "time_elapsed": 71164,
            "key_press": -1,
            "trial_index": 0,
            "trial_index_global": 125
        },
        {
            "rt": 1022,
            "trial_type": "single-stim",
            "stimulus": "<div class = centerbox><p class = stroop-stim style = \"color:green\">GREEN</p></div>",
            "internal_chunk_id": "0-0.3-1",
            "time_elapsed": 72253,
            "key_press": 71,
            "type": "stroop_frequent",
            "trial_index": 0,
            "trial_index_global": 126
        },
        {
            "rt": -1,
            "trial_type": "single-stim",
            "stimulus": "",
            "internal_chunk_id": "0-0.3-1",
            "time_elapsed": 72504,
            "key_press": -1,
            "trial_index": 0,
            "trial_index_global": 127
        },
        {
            "rt": -1,
            "trial_type": "single-stim",
            "stimulus": "<div class = centerbox><p class = 'stroop-stim'>+</p></div>",
            "internal_chunk_id": "0-0.3-2",
            "time_elapsed": 72707,
            "key_press": -1,
            "trial_index": 0,
            "trial_index_global": 128
        },
        {
            "rt": 621,
            "trial_type": "single-stim",
            "stimulus": "<div class = centerbox><p class = stroop-stim style = \"color:blue\">BLUE</p></div>",
            "internal_chunk_id": "0-0.3-2",
            "time_elapsed": 73450,
            "key_press": 66,
            "type": "stroop_frequent",
            "trial_index": 0,
            "trial_index_global": 129
        },
        {
            "rt": -1,
            "trial_type": "single-stim",
            "stimulus": "",
            "internal_chunk_id": "0-0.3-2",
            "time_elapsed": 73701,
            "key_press": -1,
            "trial_index": 0,
            "trial_index_global": 130
        },
        {
            "rt": -1,
            "trial_type": "single-stim",
            "stimulus": "<div class = centerbox><p class = 'stroop-stim'>+</p></div>",
            "internal_chunk_id": "0-0.3-3",
            "time_elapsed": 73907,
            "key_press": -1,
            "trial_index": 0,
            "trial_index_global": 131
        },
        {
            "rt": 686,
            "trial_type": "single-stim",
            "stimulus": "<div class = centerbox><p class = stroop-stim style = \"color:red\">GREEN</p></div>",
            "internal_chunk_id": "0-0.3-3",
            "time_elapsed": 74759,
            "key_press": 82,
            "type": "stroop_frequent",
            "trial_index": 0,
            "trial_index_global": 132
        },
        {
            "rt": -1,
            "trial_type": "single-stim",
            "stimulus": "",
            "internal_chunk_id": "0-0.3-3",
            "time_elapsed": 75010,
            "key_press": -1,
            "trial_index": 0,
            "trial_index_global": 133
        },
        {
            "rt": -1,
            "trial_type": "single-stim",
            "stimulus": "<div class = centerbox><p class = 'stroop-stim'>+</p></div>",
            "internal_chunk_id": "0-0.3-4",
            "time_elapsed": 75214,
            "key_press": -1,
            "trial_index": 0,
            "trial_index_global": 134
        },
        {
            "rt": 948,
            "trial_type": "single-stim",
            "stimulus": "<div class = centerbox><p class = stroop-stim style = \"color:blue\">RED</p></div>",
            "internal_chunk_id": "0-0.3-4",
            "time_elapsed": 76259,
            "key_press": 66,
            "type": "stroop_frequent",
            "trial_index": 0,
            "trial_index_global": 135
        },
        {
            "rt": -1,
            "trial_type": "single-stim",
            "stimulus": "",
            "internal_chunk_id": "0-0.3-4",
            "time_elapsed": 76510,
            "key_press": -1,
            "trial_index": 0,
            "trial_index_global": 136
        },
        {
            "rt": -1,
            "trial_type": "single-stim",
            "stimulus": "<div class = centerbox><p class = 'stroop-stim'>+</p></div>",
            "internal_chunk_id": "0-0.3-5",
            "time_elapsed": 76713,
            "key_press": -1,
            "trial_index": 0,
            "trial_index_global": 137
        },
        {
            "rt": 592,
            "trial_type": "single-stim",
            "stimulus": "<div class = centerbox><p class = stroop-stim style = \"color:red\">RED</p></div>",
            "internal_chunk_id": "0-0.3-5",
            "time_elapsed": 77472,
            "key_press": 82,
            "type": "stroop_frequent",
            "trial_index": 0,
            "trial_index_global": 138
        },
        {
            "rt": -1,
            "trial_type": "single-stim",
            "stimulus": "",
            "internal_chunk_id": "0-0.3-5",
            "time_elapsed": 77723,
            "key_press": -1,
            "trial_index": 0,
            "trial_index_global": 139
        },
        {
            "rt": -1,
            "trial_type": "single-stim",
            "stimulus": "<div class = centerbox><p class = 'stroop-stim'>+</p></div>",
            "internal_chunk_id": "0-0.3-6",
            "time_elapsed": 77926,
            "key_press": -1,
            "trial_index": 0,
            "trial_index_global": 140
        },
        {
            "rt": 815,
            "trial_type": "single-stim",
            "stimulus": "<div class = centerbox><p class = stroop-stim style = \"color:red\">BLUE</p></div>",
            "internal_chunk_id": "0-0.3-6",
            "time_elapsed": 78888,
            "key_press": 82,
            "type": "stroop_frequent",
            "trial_index": 0,
            "trial_index_global": 141
        },
        {
            "rt": -1,
            "trial_type": "single-stim",
            "stimulus": "",
            "internal_chunk_id": "0-0.3-6",
            "time_elapsed": 79140,
            "key_press": -1,
            "trial_index": 0,
            "trial_index_global": 142
        },
        {
            "rt": -1,
            "trial_type": "single-stim",
            "stimulus": "<div class = centerbox><p class = 'stroop-stim'>+</p></div>",
            "internal_chunk_id": "0-0.3-7",
            "time_elapsed": 79344,
            "key_press": -1,
            "trial_index": 0,
            "trial_index_global": 143
        },
        {
            "rt": 500,
            "trial_type": "single-stim",
            "stimulus": "<div class = centerbox><p class = stroop-stim style = \"color:red\">BLUE</p></div>",
            "internal_chunk_id": "0-0.3-7",
            "time_elapsed": 79985,
            "key_press": 82,
            "type": "stroop_frequent",
            "trial_index": 0,
            "trial_index_global": 144
        },
        {
            "rt": -1,
            "trial_type": "single-stim",
            "stimulus": "",
            "internal_chunk_id": "0-0.3-7",
            "time_elapsed": 80237,
            "key_press": -1,
            "trial_index": 0,
            "trial_index_global": 145
        },
        {
            "rt": -1,
            "trial_type": "single-stim",
            "stimulus": "<div class = centerbox><p class = 'stroop-stim'>+</p></div>",
            "internal_chunk_id": "0-0.3-8",
            "time_elapsed": 80439,
            "key_press": -1,
            "trial_index": 0,
            "trial_index_global": 146
        },
        {
            "rt": 952,
            "trial_type": "single-stim",
            "stimulus": "<div class = centerbox><p class = stroop-stim style = \"color:blue\">RED</p></div>",
            "internal_chunk_id": "0-0.3-8",
            "time_elapsed": 81524,
            "key_press": 66,
            "type": "stroop_frequent",
            "trial_index": 0,
            "trial_index_global": 147
        },
        {
            "rt": -1,
            "trial_type": "single-stim",
            "stimulus": "",
            "internal_chunk_id": "0-0.3-8",
            "time_elapsed": 81775,
            "key_press": -1,
            "trial_index": 0,
            "trial_index_global": 148
        },
        {
            "rt": -1,
            "trial_type": "single-stim",
            "stimulus": "<div class = centerbox><p class = 'stroop-stim'>+</p></div>",
            "internal_chunk_id": "0-0.3-9",
            "time_elapsed": 81977,
            "key_press": -1,
            "trial_index": 0,
            "trial_index_global": 149
        },
        {
            "rt": 543,
            "trial_type": "single-stim",
            "stimulus": "<div class = centerbox><p class = stroop-stim style = \"color:blue\">RED</p></div>",
            "internal_chunk_id": "0-0.3-9",
            "time_elapsed": 82643,
            "key_press": 66,
            "type": "stroop_frequent",
            "trial_index": 0,
            "trial_index_global": 150
        },
        {
            "rt": -1,
            "trial_type": "single-stim",
            "stimulus": "",
            "internal_chunk_id": "0-0.3-9",
            "time_elapsed": 82895,
            "key_press": -1,
            "trial_index": 0,
            "trial_index_global": 151
        },
        {
            "rt": -1,
            "trial_type": "single-stim",
            "stimulus": "<div class = centerbox><p class = 'stroop-stim'>+</p></div>",
            "internal_chunk_id": "0-0.3-10",
            "time_elapsed": 83099,
            "key_press": -1,
            "trial_index": 0,
            "trial_index_global": 152
        },
        {
            "rt": 767,
            "trial_type": "single-stim",
            "stimulus": "<div class = centerbox><p class = stroop-stim style = \"color:blue\">GREEN</p></div>",
            "internal_chunk_id": "0-0.3-10",
            "time_elapsed": 83979,
            "key_press": 66,
            "type": "stroop_frequent",
            "trial_index": 0,
            "trial_index_global": 153
        },
        {
            "rt": -1,
            "trial_type": "single-stim",
            "stimulus": "",
            "internal_chunk_id": "0-0.3-10",
            "time_elapsed": 84231,
            "key_press": -1,
            "trial_index": 0,
            "trial_index_global": 154
        },
        {
            "rt": -1,
            "trial_type": "single-stim",
            "stimulus": "<div class = centerbox><p class = 'stroop-stim'>+</p></div>",
            "internal_chunk_id": "0-0.3-11",
            "time_elapsed": 84433,
            "key_press": -1,
            "trial_index": 0,
            "trial_index_global": 155
        },
        {
            "rt": 619,
            "trial_type": "single-stim",
            "stimulus": "<div class = centerbox><p class = stroop-stim style = \"color:green\">BLUE</p></div>",
            "internal_chunk_id": "0-0.3-11",
            "time_elapsed": 85127,
            "key_press": 71,
            "type": "stroop_frequent",
            "trial_index": 0,
            "trial_index_global": 156
        },
        {
            "rt": -1,
            "trial_type": "single-stim",
            "stimulus": "",
            "internal_chunk_id": "0-0.3-11",
            "time_elapsed": 85378,
            "key_press": -1,
            "trial_index": 0,
            "trial_index_global": 157
        },
        {
            "rt": -1,
            "trial_type": "single-stim",
            "stimulus": "<div class = centerbox><p class = 'stroop-stim'>+</p></div>",
            "internal_chunk_id": "0-0.3-12",
            "time_elapsed": 85581,
            "key_press": -1,
            "trial_index": 0,
            "trial_index_global": 158
        },
        {
            "rt": 830,
            "trial_type": "single-stim",
            "stimulus": "<div class = centerbox><p class = stroop-stim style = \"color:blue\">RED</p></div>",
            "internal_chunk_id": "0-0.3-12",
            "time_elapsed": 86470,
            "key_press": 66,
            "type": "stroop_frequent",
            "trial_index": 0,
            "trial_index_global": 159
        },
        {
            "rt": -1,
            "trial_type": "single-stim",
            "stimulus": "",
            "internal_chunk_id": "0-0.3-12",
            "time_elapsed": 86721,
            "key_press": -1,
            "trial_index": 0,
            "trial_index_global": 160
        },
        {
            "rt": -1,
            "trial_type": "single-stim",
            "stimulus": "<div class = centerbox><p class = 'stroop-stim'>+</p></div>",
            "internal_chunk_id": "0-0.3-13",
            "time_elapsed": 86923,
            "key_press": -1,
            "trial_index": 0,
            "trial_index_global": 161
        },
        {
            "rt": 593,
            "trial_type": "single-stim",
            "stimulus": "<div class = centerbox><p class = stroop-stim style = \"color:blue\">GREEN</p></div>",
            "internal_chunk_id": "0-0.3-13",
            "time_elapsed": 87596,
            "key_press": 66,
            "type": "stroop_frequent",
            "trial_index": 0,
            "trial_index_global": 162
        },
        {
            "rt": -1,
            "trial_type": "single-stim",
            "stimulus": "",
            "internal_chunk_id": "0-0.3-13",
            "time_elapsed": 87847,
            "key_press": -1,
            "trial_index": 0,
            "trial_index_global": 163
        },
        {
            "rt": -1,
            "trial_type": "single-stim",
            "stimulus": "<div class = centerbox><p class = 'stroop-stim'>+</p></div>",
            "internal_chunk_id": "0-0.3-14",
            "time_elapsed": 88049,
            "key_press": -1,
            "trial_index": 0,
            "trial_index_global": 164
        },
        {
            "rt": 827,
            "trial_type": "single-stim",
            "stimulus": "<div class = centerbox><p class = stroop-stim style = \"color:green\">BLUE</p></div>",
            "internal_chunk_id": "0-0.3-14",
            "time_elapsed": 88946,
            "key_press": 71,
            "type": "stroop_frequent",
            "trial_index": 0,
            "trial_index_global": 165
        },
        {
            "rt": -1,
            "trial_type": "single-stim",
            "stimulus": "",
            "internal_chunk_id": "0-0.3-14",
            "time_elapsed": 89198,
            "key_press": -1,
            "trial_index": 0,
            "trial_index_global": 166
        },
        {
            "rt": -1,
            "trial_type": "single-stim",
            "stimulus": "<div class = centerbox><p class = 'stroop-stim'>+</p></div>",
            "internal_chunk_id": "0-0.3-15",
            "time_elapsed": 89400,
            "key_press": -1,
            "trial_index": 0,
            "trial_index_global": 167
        },
        {
            "rt": 759,
            "trial_type": "single-stim",
            "stimulus": "<div class = centerbox><p class = stroop-stim style = \"color:red\">GREEN</p></div>",
            "internal_chunk_id": "0-0.3-15",
            "time_elapsed": 90288,
            "key_press": 82,
            "type": "stroop_frequent",
            "trial_index": 0,
            "trial_index_global": 168
        },
        {
            "rt": -1,
            "trial_type": "single-stim",
            "stimulus": "",
            "internal_chunk_id": "0-0.3-15",
            "time_elapsed": 90539,
            "key_press": -1,
            "trial_index": 0,
            "trial_index_global": 169
        },
        {
            "rt": -1,
            "trial_type": "single-stim",
            "stimulus": "<div class = centerbox><p class = 'stroop-stim'>+</p></div>",
            "internal_chunk_id": "0-0.3-16",
            "time_elapsed": 90742,
            "key_press": -1,
            "trial_index": 0,
            "trial_index_global": 170
        },
        {
            "rt": 844,
            "trial_type": "single-stim",
            "stimulus": "<div class = centerbox><p class = stroop-stim style = \"color:blue\">RED</p></div>",
            "internal_chunk_id": "0-0.3-16",
            "time_elapsed": 91651,
            "key_press": 66,
            "type": "stroop_frequent",
            "trial_index": 0,
            "trial_index_global": 171
        },
        {
            "rt": -1,
            "trial_type": "single-stim",
            "stimulus": "",
            "internal_chunk_id": "0-0.3-16",
            "time_elapsed": 91902,
            "key_press": -1,
            "trial_index": 0,
            "trial_index_global": 172
        },
        {
            "rt": -1,
            "trial_type": "single-stim",
            "stimulus": "<div class = centerbox><p class = 'stroop-stim'>+</p></div>",
            "internal_chunk_id": "0-0.3-17",
            "time_elapsed": 92106,
            "key_press": -1,
            "trial_index": 0,
            "trial_index_global": 173
        },
        {
            "rt": 760,
            "trial_type": "single-stim",
            "stimulus": "<div class = centerbox><p class = stroop-stim style = \"color:green\">BLUE</p></div>",
            "internal_chunk_id": "0-0.3-17",
            "time_elapsed": 92915,
            "key_press": 71,
            "type": "stroop_frequent",
            "trial_index": 0,
            "trial_index_global": 174
        },
        {
            "rt": -1,
            "trial_type": "single-stim",
            "stimulus": "",
            "internal_chunk_id": "0-0.3-17",
            "time_elapsed": 93168,
            "key_press": -1,
            "trial_index": 0,
            "trial_index_global": 175
        },
        {
            "rt": -1,
            "trial_type": "single-stim",
            "stimulus": "<div class = centerbox><p class = 'stroop-stim'>+</p></div>",
            "internal_chunk_id": "0-0.3-18",
            "time_elapsed": 93371,
            "key_press": -1,
            "trial_index": 0,
            "trial_index_global": 176
        },
        {
            "rt": 865,
            "trial_type": "single-stim",
            "stimulus": "<div class = centerbox><p class = stroop-stim style = \"color:red\">BLUE</p></div>",
            "internal_chunk_id": "0-0.3-18",
            "time_elapsed": 94373,
            "key_press": 82,
            "type": "stroop_frequent",
            "trial_index": 0,
            "trial_index_global": 177
        },
        {
            "rt": -1,
            "trial_type": "single-stim",
            "stimulus": "",
            "internal_chunk_id": "0-0.3-18",
            "time_elapsed": 94625,
            "key_press": -1,
            "trial_index": 0,
            "trial_index_global": 178
        },
        {
            "rt": -1,
            "trial_type": "single-stim",
            "stimulus": "<div class = centerbox><p class = 'stroop-stim'>+</p></div>",
            "internal_chunk_id": "0-0.3-19",
            "time_elapsed": 94830,
            "key_press": -1,
            "trial_index": 0,
            "trial_index_global": 179
        },
        {
            "rt": 961,
            "trial_type": "single-stim",
            "stimulus": "<div class = centerbox><p class = stroop-stim style = \"color:green\">BLUE</p></div>",
            "internal_chunk_id": "0-0.3-19",
            "time_elapsed": 95868,
            "key_press": 71,
            "type": "stroop_frequent",
            "trial_index": 0,
            "trial_index_global": 180
        },
        {
            "rt": -1,
            "trial_type": "single-stim",
            "stimulus": "",
            "internal_chunk_id": "0-0.3-19",
            "time_elapsed": 96120,
            "key_press": -1,
            "trial_index": 0,
            "trial_index_global": 181
        },
        {
            "rt": -1,
            "trial_type": "single-stim",
            "stimulus": "<div class = centerbox><p class = 'stroop-stim'>+</p></div>",
            "internal_chunk_id": "0-0.3-20",
            "time_elapsed": 96323,
            "key_press": -1,
            "trial_index": 0,
            "trial_index_global": 182
        },
        {
            "rt": 935,
            "trial_type": "single-stim",
            "stimulus": "<div class = centerbox><p class = stroop-stim style = \"color:red\">BLUE</p></div>",
            "internal_chunk_id": "0-0.3-20",
            "time_elapsed": 97376,
            "key_press": 82,
            "type": "stroop_frequent",
            "trial_index": 0,
            "trial_index_global": 183
        },
        {
            "rt": -1,
            "trial_type": "single-stim",
            "stimulus": "",
            "internal_chunk_id": "0-0.3-20",
            "time_elapsed": 97628,
            "key_press": -1,
            "trial_index": 0,
            "trial_index_global": 184
        },
        {
            "rt": -1,
            "trial_type": "single-stim",
            "stimulus": "<div class = centerbox><p class = 'stroop-stim'>+</p></div>",
            "internal_chunk_id": "0-0.3-21",
            "time_elapsed": 97831,
            "key_press": -1,
            "trial_index": 0,
            "trial_index_global": 185
        },
        {
            "rt": 791,
            "trial_type": "single-stim",
            "stimulus": "<div class = centerbox><p class = stroop-stim style = \"color:green\">BLUE</p></div>",
            "internal_chunk_id": "0-0.3-21",
            "time_elapsed": 98680,
            "key_press": 71,
            "type": "stroop_frequent",
            "trial_index": 0,
            "trial_index_global": 186
        },
        {
            "rt": -1,
            "trial_type": "single-stim",
            "stimulus": "",
            "internal_chunk_id": "0-0.3-21",
            "time_elapsed": 98931,
            "key_press": -1,
            "trial_index": 0,
            "trial_index_global": 187
        },
        {
            "rt": -1,
            "trial_type": "single-stim",
            "stimulus": "<div class = centerbox><p class = 'stroop-stim'>+</p></div>",
            "internal_chunk_id": "0-0.3-22",
            "time_elapsed": 99134,
            "key_press": -1,
            "trial_index": 0,
            "trial_index_global": 188
        },
        {
            "rt": 633,
            "trial_type": "single-stim",
            "stimulus": "<div class = centerbox><p class = stroop-stim style = \"color:green\">BLUE</p></div>",
            "internal_chunk_id": "0-0.3-22",
            "time_elapsed": 99837,
            "key_press": 71,
            "type": "stroop_frequent",
            "trial_index": 0,
            "trial_index_global": 189
        },
        {
            "rt": -1,
            "trial_type": "single-stim",
            "stimulus": "",
            "internal_chunk_id": "0-0.3-22",
            "time_elapsed": 100089,
            "key_press": -1,
            "trial_index": 0,
            "trial_index_global": 190
        },
        {
            "rt": -1,
            "trial_type": "single-stim",
            "stimulus": "<div class = centerbox><p class = 'stroop-stim'>+</p></div>",
            "internal_chunk_id": "0-0.3-23",
            "time_elapsed": 100294,
            "key_press": -1,
            "trial_index": 0,
            "trial_index_global": 191
        },
        {
            "rt": 551,
            "trial_type": "single-stim",
            "stimulus": "<div class = centerbox><p class = stroop-stim style = \"color:blue\">GREEN</p></div>",
            "internal_chunk_id": "0-0.3-23",
            "time_elapsed": 100923,
            "key_press": 66,
            "type": "stroop_frequent",
            "trial_index": 0,
            "trial_index_global": 192
        },
        {
            "rt": -1,
            "trial_type": "single-stim",
            "stimulus": "",
            "internal_chunk_id": "0-0.3-23",
            "time_elapsed": 101176,
            "key_press": -1,
            "trial_index": 0,
            "trial_index_global": 193
        },
        {
            "rt": -1,
            "trial_type": "single-stim",
            "stimulus": "<div class = centerbox><p class = 'stroop-stim'>+</p></div>",
            "internal_chunk_id": "0-0.3-24",
            "time_elapsed": 101378,
            "key_press": -1,
            "trial_index": 0,
            "trial_index_global": 194
        },
        {
            "rt": 524,
            "trial_type": "single-stim",
            "stimulus": "<div class = centerbox><p class = stroop-stim style = \"color:blue\">GREEN</p></div>",
            "internal_chunk_id": "0-0.3-24",
            "time_elapsed": 101964,
            "key_press": 66,
            "type": "stroop_frequent",
            "trial_index": 0,
            "trial_index_global": 195
        },
        {
            "rt": -1,
            "trial_type": "single-stim",
            "stimulus": "",
            "internal_chunk_id": "0-0.3-24",
            "time_elapsed": 102216,
            "key_press": -1,
            "trial_index": 0,
            "trial_index_global": 196
        },
        {
            "rt": -1,
            "trial_type": "single-stim",
            "stimulus": "<div class = centerbox><p class = 'stroop-stim'>+</p></div>",
            "internal_chunk_id": "0-0.3-25",
            "time_elapsed": 102420,
            "key_press": -1,
            "trial_index": 0,
            "trial_index_global": 197
        },
        {
            "rt": 455,
            "trial_type": "single-stim",
            "stimulus": "<div class = centerbox><p class = stroop-stim style = \"color:red\">RED</p></div>",
            "internal_chunk_id": "0-0.3-25",
            "time_elapsed": 102996,
            "key_press": 82,
            "type": "stroop_frequent",
            "trial_index": 0,
            "trial_index_global": 198
        },
        {
            "rt": -1,
            "trial_type": "single-stim",
            "stimulus": "",
            "internal_chunk_id": "0-0.3-25",
            "time_elapsed": 103248,
            "key_press": -1,
            "trial_index": 0,
            "trial_index_global": 199
        },
        {
            "rt": -1,
            "trial_type": "single-stim",
            "stimulus": "<div class = centerbox><p class = 'stroop-stim'>+</p></div>",
            "internal_chunk_id": "0-0.3-26",
            "time_elapsed": 103452,
            "key_press": -1,
            "trial_index": 0,
            "trial_index_global": 200
        },
        {
            "rt": 669,
            "trial_type": "single-stim",
            "stimulus": "<div class = centerbox><p class = stroop-stim style = \"color:blue\">RED</p></div>",
            "internal_chunk_id": "0-0.3-26",
            "time_elapsed": 104167,
            "key_press": 66,
            "type": "stroop_frequent",
            "trial_index": 0,
            "trial_index_global": 201
        },
        {
            "rt": -1,
            "trial_type": "single-stim",
            "stimulus": "",
            "internal_chunk_id": "0-0.3-26",
            "time_elapsed": 104419,
            "key_press": -1,
            "trial_index": 0,
            "trial_index_global": 202
        },
        {
            "rt": -1,
            "trial_type": "single-stim",
            "stimulus": "<div class = centerbox><p class = 'stroop-stim'>+</p></div>",
            "internal_chunk_id": "0-0.3-27",
            "time_elapsed": 104622,
            "key_press": -1,
            "trial_index": 0,
            "trial_index_global": 203
        },
        {
            "rt": 630,
            "trial_type": "single-stim",
            "stimulus": "<div class = centerbox><p class = stroop-stim style = \"color:blue\">RED</p></div>",
            "internal_chunk_id": "0-0.3-27",
            "time_elapsed": 105314,
            "key_press": 66,
            "type": "stroop_frequent",
            "trial_index": 0,
            "trial_index_global": 204
        },
        {
            "rt": -1,
            "trial_type": "single-stim",
            "stimulus": "",
            "internal_chunk_id": "0-0.3-27",
            "time_elapsed": 105566,
            "key_press": -1,
            "trial_index": 0,
            "trial_index_global": 205
        },
        {
            "rt": -1,
            "trial_type": "single-stim",
            "stimulus": "<div class = centerbox><p class = 'stroop-stim'>+</p></div>",
            "internal_chunk_id": "0-0.3-28",
            "time_elapsed": 105771,
            "key_press": -1,
            "trial_index": 0,
            "trial_index_global": 206
        },
        {
            "rt": 465,
            "trial_type": "single-stim",
            "stimulus": "<div class = centerbox><p class = stroop-stim style = \"color:blue\">RED</p></div>",
            "internal_chunk_id": "0-0.3-28",
            "time_elapsed": 106298,
            "key_press": 66,
            "type": "stroop_frequent",
            "trial_index": 0,
            "trial_index_global": 207
        },
        {
            "rt": -1,
            "trial_type": "single-stim",
            "stimulus": "",
            "internal_chunk_id": "0-0.3-28",
            "time_elapsed": 106550,
            "key_press": -1,
            "trial_index": 0,
            "trial_index_global": 208
        },
        {
            "rt": -1,
            "trial_type": "single-stim",
            "stimulus": "<div class = centerbox><p class = 'stroop-stim'>+</p></div>",
            "internal_chunk_id": "0-0.3-29",
            "time_elapsed": 106753,
            "key_press": -1,
            "trial_index": 0,
            "trial_index_global": 209
        },
        {
            "rt": 753,
            "trial_type": "single-stim",
            "stimulus": "<div class = centerbox><p class = stroop-stim style = \"color:red\">BLUE</p></div>",
            "internal_chunk_id": "0-0.3-29",
            "time_elapsed": 107638,
            "key_press": 82,
            "type": "stroop_frequent",
            "trial_index": 0,
            "trial_index_global": 210
        },
        {
            "rt": -1,
            "trial_type": "single-stim",
            "stimulus": "",
            "internal_chunk_id": "0-0.3-29",
            "time_elapsed": 107890,
            "key_press": -1,
            "trial_index": 0,
            "trial_index_global": 211
        },
        {
            "rt": -1,
            "trial_type": "single-stim",
            "stimulus": "<div class = centerbox><p class = 'stroop-stim'>+</p></div>",
            "internal_chunk_id": "0-0.3-30",
            "time_elapsed": 108093,
            "key_press": -1,
            "trial_index": 0,
            "trial_index_global": 212
        },
        {
            "rt": 512,
            "trial_type": "single-stim",
            "stimulus": "<div class = centerbox><p class = stroop-stim style = \"color:red\">GREEN</p></div>",
            "internal_chunk_id": "0-0.3-30",
            "time_elapsed": 108753,
            "key_press": 82,
            "type": "stroop_frequent",
            "trial_index": 0,
            "trial_index_global": 213
        },
        {
            "rt": -1,
            "trial_type": "single-stim",
            "stimulus": "",
            "internal_chunk_id": "0-0.3-30",
            "time_elapsed": 109005,
            "key_press": -1,
            "trial_index": 0,
            "trial_index_global": 214
        },
        {
            "rt": -1,
            "trial_type": "single-stim",
            "stimulus": "<div class = centerbox><p class = 'stroop-stim'>+</p></div>",
            "internal_chunk_id": "0-0.3-31",
            "time_elapsed": 109208,
            "key_press": -1,
            "trial_index": 0,
            "trial_index_global": 215
        },
        {
            "rt": 444,
            "trial_type": "single-stim",
            "stimulus": "<div class = centerbox><p class = stroop-stim style = \"color:blue\">BLUE</p></div>",
            "internal_chunk_id": "0-0.3-31",
            "time_elapsed": 109748,
            "key_press": 66,
            "type": "stroop_frequent",
            "trial_index": 0,
            "trial_index_global": 216
        },
        {
            "rt": -1,
            "trial_type": "single-stim",
            "stimulus": "",
            "internal_chunk_id": "0-0.3-31",
            "time_elapsed": 109999,
            "key_press": -1,
            "trial_index": 0,
            "trial_index_global": 217
        },
        {
            "rt": -1,
            "trial_type": "single-stim",
            "stimulus": "<div class = centerbox><p class = 'stroop-stim'>+</p></div>",
            "internal_chunk_id": "0-0.3-32",
            "time_elapsed": 110204,
            "key_press": -1,
            "trial_index": 0,
            "trial_index_global": 218
        },
        {
            "rt": 482,
            "trial_type": "single-stim",
            "stimulus": "<div class = centerbox><p class = stroop-stim style = \"color:blue\">RED</p></div>",
            "internal_chunk_id": "0-0.3-32",
            "time_elapsed": 110801,
            "key_press": 66,
            "type": "stroop_frequent",
            "trial_index": 0,
            "trial_index_global": 219
        },
        {
            "rt": -1,
            "trial_type": "single-stim",
            "stimulus": "",
            "internal_chunk_id": "0-0.3-32",
            "time_elapsed": 111052,
            "key_press": -1,
            "trial_index": 0,
            "trial_index_global": 220
        },
        {
            "rt": -1,
            "trial_type": "single-stim",
            "stimulus": "<div class = centerbox><p class = 'stroop-stim'>+</p></div>",
            "internal_chunk_id": "0-0.3-33",
            "time_elapsed": 111256,
            "key_press": -1,
            "trial_index": 0,
            "trial_index_global": 221
        },
        {
            "rt": 726,
            "trial_type": "single-stim",
            "stimulus": "<div class = centerbox><p class = stroop-stim style = \"color:red\">RED</p></div>",
            "internal_chunk_id": "0-0.3-33",
            "time_elapsed": 112113,
            "key_press": 82,
            "type": "stroop_frequent",
            "trial_index": 0,
            "trial_index_global": 222
        },
        {
            "rt": -1,
            "trial_type": "single-stim",
            "stimulus": "",
            "internal_chunk_id": "0-0.3-33",
            "time_elapsed": 112365,
            "key_press": -1,
            "trial_index": 0,
            "trial_index_global": 223
        },
        {
            "rt": -1,
            "trial_type": "single-stim",
            "stimulus": "<div class = centerbox><p class = 'stroop-stim'>+</p></div>",
            "internal_chunk_id": "0-0.3-34",
            "time_elapsed": 112570,
            "key_press": -1,
            "trial_index": 0,
            "trial_index_global": 224
        },
        {
            "rt": 840,
            "trial_type": "single-stim",
            "stimulus": "<div class = centerbox><p class = stroop-stim style = \"color:green\">BLUE</p></div>",
            "internal_chunk_id": "0-0.3-34",
            "time_elapsed": 113517,
            "key_press": 71,
            "type": "stroop_frequent",
            "trial_index": 0,
            "trial_index_global": 225
        },
        {
            "rt": -1,
            "trial_type": "single-stim",
            "stimulus": "",
            "internal_chunk_id": "0-0.3-34",
            "time_elapsed": 113768,
            "key_press": -1,
            "trial_index": 0,
            "trial_index_global": 226
        },
        {
            "rt": -1,
            "trial_type": "single-stim",
            "stimulus": "<div class = centerbox><p class = 'stroop-stim'>+</p></div>",
            "internal_chunk_id": "0-0.3-35",
            "time_elapsed": 113971,
            "key_press": -1,
            "trial_index": 0,
            "trial_index_global": 227
        },
        {
            "rt": 700,
            "trial_type": "single-stim",
            "stimulus": "<div class = centerbox><p class = stroop-stim style = \"color:blue\">GREEN</p></div>",
            "internal_chunk_id": "0-0.3-35",
            "time_elapsed": 114820,
            "key_press": 66,
            "type": "stroop_frequent",
            "trial_index": 0,
            "trial_index_global": 228
        },
        {
            "rt": -1,
            "trial_type": "single-stim",
            "stimulus": "",
            "internal_chunk_id": "0-0.3-35",
            "time_elapsed": 115073,
            "key_press": -1,
            "trial_index": 0,
            "trial_index_global": 229
        },
        {
            "rt": -1,
            "trial_type": "single-stim",
            "stimulus": "<div class = centerbox><p class = 'stroop-stim'>+</p></div>",
            "internal_chunk_id": "0-0.3-36",
            "time_elapsed": 115277,
            "key_press": -1,
            "trial_index": 0,
            "trial_index_global": 230
        },
        {
            "rt": 824,
            "trial_type": "single-stim",
            "stimulus": "<div class = centerbox><p class = stroop-stim style = \"color:green\">GREEN</p></div>",
            "internal_chunk_id": "0-0.3-36",
            "time_elapsed": 116193,
            "key_press": 71,
            "type": "stroop_frequent",
            "trial_index": 0,
            "trial_index_global": 231
        },
        {
            "rt": -1,
            "trial_type": "single-stim",
            "stimulus": "",
            "internal_chunk_id": "0-0.3-36",
            "time_elapsed": 116444,
            "key_press": -1,
            "trial_index": 0,
            "trial_index_global": 232
        },
        {
            "rt": 84,
            "trial_type": "single-stim",
            "stimulus": "<div class = centerbox><p class = 'stroop-stim'>+</p></div>",
            "internal_chunk_id": "0-0.3-37",
            "time_elapsed": 116653,
            "key_press": 66,
            "trial_index": 0,
            "trial_index_global": 233
        },
        {
            "rt": 792,
            "trial_type": "single-stim",
            "stimulus": "<div class = centerbox><p class = stroop-stim style = \"color:green\">RED</p></div>",
            "internal_chunk_id": "0-0.3-37",
            "time_elapsed": 117512,
            "key_press": 71,
            "type": "stroop_frequent",
            "trial_index": 0,
            "trial_index_global": 234
        },
        {
            "rt": -1,
            "trial_type": "single-stim",
            "stimulus": "",
            "internal_chunk_id": "0-0.3-37",
            "time_elapsed": 117764,
            "key_press": -1,
            "trial_index": 0,
            "trial_index_global": 235
        },
        {
            "rt": -1,
            "trial_type": "single-stim",
            "stimulus": "<div class = centerbox><p class = 'stroop-stim'>+</p></div>",
            "internal_chunk_id": "0-0.3-38",
            "time_elapsed": 117969,
            "key_press": -1,
            "trial_index": 0,
            "trial_index_global": 236
        },
        {
            "rt": 564,
            "trial_type": "single-stim",
            "stimulus": "<div class = centerbox><p class = stroop-stim style = \"color:blue\">BLUE</p></div>",
            "internal_chunk_id": "0-0.3-38",
            "time_elapsed": 118595,
            "key_press": 66,
            "type": "stroop_frequent",
            "trial_index": 0,
            "trial_index_global": 237
        },
        {
            "rt": -1,
            "trial_type": "single-stim",
            "stimulus": "",
            "internal_chunk_id": "0-0.3-38",
            "time_elapsed": 118847,
            "key_press": -1,
            "trial_index": 0,
            "trial_index_global": 238
        },
        {
            "rt": -1,
            "trial_type": "single-stim",
            "stimulus": "<div class = centerbox><p class = 'stroop-stim'>+</p></div>",
            "internal_chunk_id": "0-0.3-39",
            "time_elapsed": 119050,
            "key_press": -1,
            "trial_index": 0,
            "trial_index_global": 239
        },
        {
            "rt": 755,
            "trial_type": "single-stim",
            "stimulus": "<div class = centerbox><p class = stroop-stim style = \"color:green\">RED</p></div>",
            "internal_chunk_id": "0-0.3-39",
            "time_elapsed": 119871,
            "key_press": 71,
            "type": "stroop_frequent",
            "trial_index": 0,
            "trial_index_global": 240
        },
        {
            "rt": -1,
            "trial_type": "single-stim",
            "stimulus": "",
            "internal_chunk_id": "0-0.3-39",
            "time_elapsed": 120123,
            "key_press": -1,
            "trial_index": 0,
            "trial_index_global": 241
        },
        {
            "rt": -1,
            "trial_type": "single-stim",
            "stimulus": "<div class = centerbox><p class = 'stroop-stim'>+</p></div>",
            "internal_chunk_id": "0-0.3-40",
            "time_elapsed": 120326,
            "key_press": -1,
            "trial_index": 0,
            "trial_index_global": 242
        },
        {
            "rt": 541,
            "trial_type": "single-stim",
            "stimulus": "<div class = centerbox><p class = stroop-stim style = \"color:red\">RED</p></div>",
            "internal_chunk_id": "0-0.3-40",
            "time_elapsed": 121014,
            "key_press": 82,
            "type": "stroop_frequent",
            "trial_index": 0,
            "trial_index_global": 243
        },
        {
            "rt": -1,
            "trial_type": "single-stim",
            "stimulus": "",
            "internal_chunk_id": "0-0.3-40",
            "time_elapsed": 121266,
            "key_press": -1,
            "trial_index": 0,
            "trial_index_global": 244
        },
        {
            "rt": -1,
            "trial_type": "single-stim",
            "stimulus": "<div class = centerbox><p class = 'stroop-stim'>+</p></div>",
            "internal_chunk_id": "0-0.3-41",
            "time_elapsed": 121469,
            "key_press": -1,
            "trial_index": 0,
            "trial_index_global": 245
        },
        {
            "rt": 629,
            "trial_type": "single-stim",
            "stimulus": "<div class = centerbox><p class = stroop-stim style = \"color:blue\">BLUE</p></div>",
            "internal_chunk_id": "0-0.3-41",
            "time_elapsed": 122190,
            "key_press": 66,
            "type": "stroop_frequent",
            "trial_index": 0,
            "trial_index_global": 246
        },
        {
            "rt": -1,
            "trial_type": "single-stim",
            "stimulus": "",
            "internal_chunk_id": "0-0.3-41",
            "time_elapsed": 122442,
            "key_press": -1,
            "trial_index": 0,
            "trial_index_global": 247
        },
        {
            "rt": -1,
            "trial_type": "single-stim",
            "stimulus": "<div class = centerbox><p class = 'stroop-stim'>+</p></div>",
            "internal_chunk_id": "0-0.3-42",
            "time_elapsed": 122648,
            "key_press": -1,
            "trial_index": 0,
            "trial_index_global": 248
        },
        {
            "rt": 720,
            "trial_type": "single-stim",
            "stimulus": "<div class = centerbox><p class = stroop-stim style = \"color:red\">GREEN</p></div>",
            "internal_chunk_id": "0-0.3-42",
            "time_elapsed": 123501,
            "key_press": 82,
            "type": "stroop_frequent",
            "trial_index": 0,
            "trial_index_global": 249
        },
        {
            "rt": -1,
            "trial_type": "single-stim",
            "stimulus": "",
            "internal_chunk_id": "0-0.3-42",
            "time_elapsed": 123752,
            "key_press": -1,
            "trial_index": 0,
            "trial_index_global": 250
        },
        {
            "rt": -1,
            "trial_type": "single-stim",
            "stimulus": "<div class = centerbox><p class = 'stroop-stim'>+</p></div>",
            "internal_chunk_id": "0-0.3-43",
            "time_elapsed": 123957,
            "key_press": -1,
            "trial_index": 0,
            "trial_index_global": 251
        },
        {
            "rt": 611,
            "trial_type": "single-stim",
            "stimulus": "<div class = centerbox><p class = stroop-stim style = \"color:blue\">BLUE</p></div>",
            "internal_chunk_id": "0-0.3-43",
            "time_elapsed": 124656,
            "key_press": 66,
            "type": "stroop_frequent",
            "trial_index": 0,
            "trial_index_global": 252
        },
        {
            "rt": -1,
            "trial_type": "single-stim",
            "stimulus": "",
            "internal_chunk_id": "0-0.3-43",
            "time_elapsed": 124908,
            "key_press": -1,
            "trial_index": 0,
            "trial_index_global": 253
        },
        {
            "rt": -1,
            "trial_type": "single-stim",
            "stimulus": "<div class = centerbox><p class = 'stroop-stim'>+</p></div>",
            "internal_chunk_id": "0-0.3-44",
            "time_elapsed": 125114,
            "key_press": -1,
            "trial_index": 0,
            "trial_index_global": 254
        },
        {
            "rt": 778,
            "trial_type": "single-stim",
            "stimulus": "<div class = centerbox><p class = stroop-stim style = \"color:green\">RED</p></div>",
            "internal_chunk_id": "0-0.3-44",
            "time_elapsed": 125943,
            "key_press": 71,
            "type": "stroop_frequent",
            "trial_index": 0,
            "trial_index_global": 255
        },
        {
            "rt": -1,
            "trial_type": "single-stim",
            "stimulus": "",
            "internal_chunk_id": "0-0.3-44",
            "time_elapsed": 126195,
            "key_press": -1,
            "trial_index": 0,
            "trial_index_global": 256
        },
        {
            "rt": -1,
            "trial_type": "single-stim",
            "stimulus": "<div class = centerbox><p class = 'stroop-stim'>+</p></div>",
            "internal_chunk_id": "0-0.3-45",
            "time_elapsed": 126398,
            "key_press": -1,
            "trial_index": 0,
            "trial_index_global": 257
        },
        {
            "rt": 586,
            "trial_type": "single-stim",
            "stimulus": "<div class = centerbox><p class = stroop-stim style = \"color:blue\">BLUE</p></div>",
            "internal_chunk_id": "0-0.3-45",
            "time_elapsed": 127052,
            "key_press": 66,
            "type": "stroop_frequent",
            "trial_index": 0,
            "trial_index_global": 258
        },
        {
            "rt": -1,
            "trial_type": "single-stim",
            "stimulus": "",
            "internal_chunk_id": "0-0.3-45",
            "time_elapsed": 127303,
            "key_press": -1,
            "trial_index": 0,
            "trial_index_global": 259
        },
        {
            "rt": -1,
            "trial_type": "single-stim",
            "stimulus": "<div class = centerbox><p class = 'stroop-stim'>+</p></div>",
            "internal_chunk_id": "0-0.3-46",
            "time_elapsed": 127507,
            "key_press": -1,
            "trial_index": 0,
            "trial_index_global": 260
        },
        {
            "rt": 791,
            "trial_type": "single-stim",
            "stimulus": "<div class = centerbox><p class = stroop-stim style = \"color:green\">GREEN</p></div>",
            "internal_chunk_id": "0-0.3-46",
            "time_elapsed": 128345,
            "key_press": 71,
            "type": "stroop_frequent",
            "trial_index": 0,
            "trial_index_global": 261
        },
        {
            "rt": -1,
            "trial_type": "single-stim",
            "stimulus": "",
            "internal_chunk_id": "0-0.3-46",
            "time_elapsed": 128596,
            "key_press": -1,
            "trial_index": 0,
            "trial_index_global": 262
        },
        {
            "rt": -1,
            "trial_type": "single-stim",
            "stimulus": "<div class = centerbox><p class = 'stroop-stim'>+</p></div>",
            "internal_chunk_id": "0-0.3-47",
            "time_elapsed": 128799,
            "key_press": -1,
            "trial_index": 0,
            "trial_index_global": 263
        },
        {
            "rt": 784,
            "trial_type": "single-stim",
            "stimulus": "<div class = centerbox><p class = stroop-stim style = \"color:red\">BLUE</p></div>",
            "internal_chunk_id": "0-0.3-47",
            "time_elapsed": 129733,
            "key_press": 82,
            "type": "stroop_frequent",
            "trial_index": 0,
            "trial_index_global": 264
        },
        {
            "rt": -1,
            "trial_type": "single-stim",
            "stimulus": "",
            "internal_chunk_id": "0-0.3-47",
            "time_elapsed": 129984,
            "key_press": -1,
            "trial_index": 0,
            "trial_index_global": 265
        },
        {
            "rt": -1,
            "trial_type": "single-stim",
            "stimulus": "<div class = centerbox><p class = 'stroop-stim'>+</p></div>",
            "internal_chunk_id": "0-0.3-48",
            "time_elapsed": 130190,
            "key_press": -1,
            "trial_index": 0,
            "trial_index_global": 266
        },
        {
            "rt": 797,
            "trial_type": "single-stim",
            "stimulus": "<div class = centerbox><p class = stroop-stim style = \"color:blue\">GREEN</p></div>",
            "internal_chunk_id": "0-0.3-48",
            "time_elapsed": 131074,
            "key_press": 66,
            "type": "stroop_frequent",
            "trial_index": 0,
            "trial_index_global": 267
        },
        {
            "rt": -1,
            "trial_type": "single-stim",
            "stimulus": "",
            "internal_chunk_id": "0-0.3-48",
            "time_elapsed": 131325,
            "key_press": -1,
            "trial_index": 0,
            "trial_index_global": 268
        },
        {
            "rt": -1,
            "trial_type": "single-stim",
            "stimulus": "<div class = centerbox><p class = 'stroop-stim'>+</p></div>",
            "internal_chunk_id": "0-0.3-49",
            "time_elapsed": 131532,
            "key_press": -1,
            "trial_index": 0,
            "trial_index_global": 269
        },
        {
            "rt": 800,
            "trial_type": "single-stim",
            "stimulus": "<div class = centerbox><p class = stroop-stim style = \"color:red\">BLUE</p></div>",
            "internal_chunk_id": "0-0.3-49",
            "time_elapsed": 132459,
            "key_press": 82,
            "type": "stroop_frequent",
            "trial_index": 0,
            "trial_index_global": 270
        },
        {
            "rt": -1,
            "trial_type": "single-stim",
            "stimulus": "",
            "internal_chunk_id": "0-0.3-49",
            "time_elapsed": 132712,
            "key_press": -1,
            "trial_index": 0,
            "trial_index_global": 271
        },
        {
            "rt": -1,
            "trial_type": "single-stim",
            "stimulus": "<div class = centerbox><p class = 'stroop-stim'>+</p></div>",
            "internal_chunk_id": "0-0.3-50",
            "time_elapsed": 132915,
            "key_press": -1,
            "trial_index": 0,
            "trial_index_global": 272
        },
        {
            "rt": 691,
            "trial_type": "single-stim",
            "stimulus": "<div class = centerbox><p class = stroop-stim style = \"color:red\">GREEN</p></div>",
            "internal_chunk_id": "0-0.3-50",
            "time_elapsed": 133764,
            "key_press": 82,
            "type": "stroop_frequent",
            "trial_index": 0,
            "trial_index_global": 273
        },
        {
            "rt": -1,
            "trial_type": "single-stim",
            "stimulus": "",
            "internal_chunk_id": "0-0.3-50",
            "time_elapsed": 134015,
            "key_press": -1,
            "trial_index": 0,
            "trial_index_global": 274
        },
        {
            "rt": -1,
            "trial_type": "single-stim",
            "stimulus": "<div class = centerbox><p class = 'stroop-stim'>+</p></div>",
            "internal_chunk_id": "0-0.3-51",
            "time_elapsed": 134219,
            "key_press": -1,
            "trial_index": 0,
            "trial_index_global": 275
        },
        {
            "rt": 605,
            "trial_type": "single-stim",
            "stimulus": "<div class = centerbox><p class = stroop-stim style = \"color:green\">RED</p></div>",
            "internal_chunk_id": "0-0.3-51",
            "time_elapsed": 134970,
            "key_press": 71,
            "type": "stroop_frequent",
            "trial_index": 0,
            "trial_index_global": 276
        },
        {
            "rt": -1,
            "trial_type": "single-stim",
            "stimulus": "",
            "internal_chunk_id": "0-0.3-51",
            "time_elapsed": 135223,
            "key_press": -1,
            "trial_index": 0,
            "trial_index_global": 277
        },
        {
            "rt": -1,
            "trial_type": "single-stim",
            "stimulus": "<div class = centerbox><p class = 'stroop-stim'>+</p></div>",
            "internal_chunk_id": "0-0.3-52",
            "time_elapsed": 135428,
            "key_press": -1,
            "trial_index": 0,
            "trial_index_global": 278
        },
        {
            "rt": 614,
            "trial_type": "single-stim",
            "stimulus": "<div class = centerbox><p class = stroop-stim style = \"color:red\">GREEN</p></div>",
            "internal_chunk_id": "0-0.3-52",
            "time_elapsed": 136173,
            "key_press": 82,
            "type": "stroop_frequent",
            "trial_index": 0,
            "trial_index_global": 279
        },
        {
            "rt": -1,
            "trial_type": "single-stim",
            "stimulus": "",
            "internal_chunk_id": "0-0.3-52",
            "time_elapsed": 136424,
            "key_press": -1,
            "trial_index": 0,
            "trial_index_global": 280
        },
        {
            "rt": -1,
            "trial_type": "single-stim",
            "stimulus": "<div class = centerbox><p class = 'stroop-stim'>+</p></div>",
            "internal_chunk_id": "0-0.3-53",
            "time_elapsed": 136630,
            "key_press": -1,
            "trial_index": 0,
            "trial_index_global": 281
        },
        {
            "rt": 406,
            "trial_type": "single-stim",
            "stimulus": "<div class = centerbox><p class = stroop-stim style = \"color:red\">GREEN</p></div>",
            "internal_chunk_id": "0-0.3-53",
            "time_elapsed": 137240,
            "key_press": 82,
            "type": "stroop_frequent",
            "trial_index": 0,
            "trial_index_global": 282
        },
        {
            "rt": -1,
            "trial_type": "single-stim",
            "stimulus": "",
            "internal_chunk_id": "0-0.3-53",
            "time_elapsed": 137492,
            "key_press": -1,
            "trial_index": 0,
            "trial_index_global": 283
        },
        {
            "rt": -1,
            "trial_type": "single-stim",
            "stimulus": "<div class = centerbox><p class = 'stroop-stim'>+</p></div>",
            "internal_chunk_id": "0-0.3-54",
            "time_elapsed": 137697,
            "key_press": -1,
            "trial_index": 0,
            "trial_index_global": 284
        },
        {
            "rt": 977,
            "trial_type": "single-stim",
            "stimulus": "<div class = centerbox><p class = stroop-stim style = \"color:blue\">GREEN</p></div>",
            "internal_chunk_id": "0-0.3-54",
            "time_elapsed": 138825,
            "key_press": 66,
            "type": "stroop_frequent",
            "trial_index": 0,
            "trial_index_global": 285
        },
        {
            "rt": -1,
            "trial_type": "single-stim",
            "stimulus": "",
            "internal_chunk_id": "0-0.3-54",
            "time_elapsed": 139078,
            "key_press": -1,
            "trial_index": 0,
            "trial_index_global": 286
        },
        {
            "rt": -1,
            "trial_type": "single-stim",
            "stimulus": "<div class = centerbox><p class = 'stroop-stim'>+</p></div>",
            "internal_chunk_id": "0-0.3-55",
            "time_elapsed": 139284,
            "key_press": -1,
            "trial_index": 0,
            "trial_index_global": 287
        },
        {
            "rt": 513,
            "trial_type": "single-stim",
            "stimulus": "<div class = centerbox><p class = stroop-stim style = \"color:blue\">RED</p></div>",
            "internal_chunk_id": "0-0.3-55",
            "time_elapsed": 139936,
            "key_press": 66,
            "type": "stroop_frequent",
            "trial_index": 0,
            "trial_index_global": 288
        },
        {
            "rt": -1,
            "trial_type": "single-stim",
            "stimulus": "",
            "internal_chunk_id": "0-0.3-55",
            "time_elapsed": 140190,
            "key_press": -1,
            "trial_index": 0,
            "trial_index_global": 289
        },
        {
