{
    "AutoApprovalTime": "2015-03-12T01:30:02Z",
    "AssignmentId": "3P1L2B7AD1P8RHGGA18956UDFRHOLZ",
    "WorkerId": "A1JAGA1B1W5NMX",
    "AcceptTime": "2015-03-10T01:04:51Z",
    "HITId": "363A7XIFV4MJYY0GOJ0W20CPME0VAH",
    "Assignment": "",
    "answer": [
        {
            "rt": 38328,
            "trial_type": "text",
            "internal_chunk_id": "0-0",
            "time_elapsed": 38468,
            "key_press": 13,
            "trial_index": 0,
            "trial_index_global": 0
        },
        {
            "rt": -1,
            "trial_type": "single-stim",
            "stimulus": "",
            "internal_chunk_id": "0-0",
            "time_elapsed": 39480,
            "key_press": -1,
            "global_params": {
                "second_stage_stim": {
                    "stimulus": [
                        "<div class = decision-left style='background:#E0C2FF; width:330px;height:230px;'><img class = 'decision-stim' src= 'images/80.png'></img></div><div class = decision-right style='background:#E0C2FF; width:330px;height:230px;'><img class = 'decision-stim' src= 'images/83.png'></img></div>",
                        "<div class = decision-left style='background:#E0C2FF; width:330px;height:230px;'><img class = 'decision-stim' src= 'images/83.png'></img></div><div class = decision-right style='background:#E0C2FF; width:330px;height:230px;'><img class = 'decision-stim' src= 'images/80.png'></img></div>",
                        "<div class = decision-left style='background:#F1B8D4; width:330px;height:230px;'><img class = 'decision-stim' src= 'images/84.png'></img></div><div class = decision-right style='background:#F1B8D4; width:330px;height:230px;'><img class = 'decision-stim' src= 'images/85.png'></img></div>",
                        "<div class = decision-left style='background:#F1B8D4; width:330px;height:230px;'><img class = 'decision-stim' src= 'images/85.png'></img></div><div class = decision-right style='background:#F1B8D4; width:330px;height:230px;'><img class = 'decision-stim' src= 'images/84.png'></img></div>"
                    ],
                    "id": [
                        [
                            2,
                            3
                        ],
                        [
                            3,
                            2
                        ],
                        [
                            4,
                            5
                        ],
                        [
                            5,
                            4
                        ]
                    ]
                },
                "stims": [
                    "images/81.png",
                    "images/82.png",
                    "images/80.png",
                    "images/83.png",
                    "images/84.png",
                    "images/85.png"
                ],
                "fs_stim": [
                    {
                        "stimulus": "<div class = decision-left style='background:#CCFF99; width:330px;height:230px;'><img class = 'decision-stim' src= 'images/81.png'></img></div><div class = decision-right style='background:#CCFF99; width:330px;height:230px;'><img class = 'decision-stim' src= 'images/82.png'></img></div>",
                        "id": [
                            0,
                            1
                        ]
                    },
                    {
                        "stimulus": "<div class = decision-left style='background:#CCFF99; width:330px;height:230px;'><img class = 'decision-stim' src= 'images/82.png'></img></div><div class = decision-right style='background:#CCFF99; width:330px;height:230px;'><img class = 'decision-stim' src= 'images/81.png'></img></div>",
                        "id": [
                            1,
                            0
                        ]
                    }
                ],
                "condition": "practice",
                "actions": [
                    37,
                    39
                ]
            },
            "type": "decision_global",
            "trial_index": 0,
            "trial_index_global": 1
        },
        {
            "rt": -1,
            "trial_type": "single-stim",
            "stimulus": "<div class = decision-left style='background:#CCFF99; width:330px;height:230px;'><img class = 'decision-stim' src= 'images/82.png'></img></div><div class = decision-right style='background:#CCFF99; width:330px;height:230px;'><img class = 'decision-stim' src= 'images/81.png'></img></div>",
            "trial_count": 0,
            "internal_chunk_id": "0-0.2-0.0-0",
            "time_elapsed": 41484,
            "key_press": -1,
            "type": "decision_first",
            "trial_index": 0,
            "trial_index_global": 2
        },
        {
            "rt": -1,
            "trial_type": "single-stim",
            "internal_chunk_id": "0-0.2-0.0-0",
            "time_elapsed": 42486,
            "key_press": -1,
            "trial_index": 0,
            "trial_index_global": 3
        },
        {
            "rt": -1,
            "trial_type": "single-stim",
            "stimulus": "<div class = centerbox style = text-align:center><p style = font-size:30px>Please respond faster </p></div>",
            "trial_count": 0,
            "internal_chunk_id": "0-0.2-0",
            "time_elapsed": 44489,
            "key_press": -1,
            "type": "decision_second",
            "trial_index": 0,
            "trial_index_global": 4
        },
        {
            "rt": -1,
            "trial_type": "single-stim",
            "stimulus": "",
            "internal_chunk_id": "0-0.2-0.3-0",
            "time_elapsed": 45491,
            "key_press": -1,
            "trial_index": 0,
            "trial_index_global": 5
        },
        {
            "rt": 535,
            "trial_type": "single-stim",
            "stimulus": "<div class = decision-left style='background:#CCFF99; width:330px;height:230px;'><img class = 'decision-stim' src= 'images/82.png'></img></div><div class = decision-right style='background:#CCFF99; width:330px;height:230px;'><img class = 'decision-stim' src= 'images/81.png'></img></div>",
            "trial_count": 1,
            "internal_chunk_id": "0-0.2-1.0-1",
            "time_elapsed": 46267,
            "key_press": 37,
            "type": "decision_first",
            "trial_index": 0,
            "trial_index_global": 6
        },
        {
            "rt": -1,
            "trial_type": "single-stim",
            "stimulus": "<div class = 'selected decision-left' style='background:#CCFF99; width:330px;height:230px;'><img class = 'decision-stim' src= 'images/82.png'></div><div class = 'decision-right fade' style='background:#CCFF99; width:330px;height:230px;'><img class = 'decision-stim  fade' src= 'images/81.png'></div>",
            "internal_chunk_id": "0-0.2-1.0-1",
            "time_elapsed": 47269,
            "key_press": -1,
            "trial_index": 0,
            "trial_index_global": 7
        },
        {
            "rt": 1213,
            "trial_type": "single-stim",
            "stimulus": "<div class = 'decision-top-background faded' style='background:#CCFF99; width:330px;height:230px;'><img class = 'decision-stim' src= 'images/82.png'></div><div class = decision-left style='background:#E0C2FF; width:330px;height:230px;'><img class = 'decision-stim' src= 'images/83.png'></img></div><div class = decision-right style='background:#E0C2FF; width:330px;height:230px;'><img class = 'decision-stim' src= 'images/80.png'></img></div>",
            "trial_count": 1,
            "internal_chunk_id": "0-0.2-1",
            "time_elapsed": 48632,
            "key_press": 39,
            "type": "decision_second",
            "trial_index": 0,
            "trial_index_global": 8
        },
        {
            "rt": -1,
            "trial_type": "single-stim",
            "stimulus": "<div class = 'decision-right selected' style='background:#E0C2FF; width:330px;height:230px;'><img class = 'decision-stim' src= 'images/80.png'></div><div class = 'fade decision-left' style='background:#E0C2FF; width:330px;height:230px;'><img class = 'decision-stim' src= 'images/83.png'></div>",
            "internal_chunk_id": "0-0.2-1.2-1",
            "time_elapsed": 49635,
            "key_press": -1,
            "trial_index": 0,
            "trial_index_global": 9
        },
        {
            "rt": -1,
            "trial_type": "single-stim",
            "stimulus": "<div class = 'decision-top-background faded' style='background:#E0C2FF; width:330px;height:230px;'><img class = 'decision-stim' src= 'images/80.png'></div><div><img  class = decision-fb src = 'images/gold_coin.png'></img></div>",
            "trial_count": 1,
            "internal_chunk_id": "0-0.2-1.2-1",
            "time_elapsed": 50137,
            "key_press": -1,
            "type": "decision_FB",
            "trial_index": 0,
            "trial_index_global": 10
        },
        {
            "rt": -1,
            "trial_type": "single-stim",
            "stimulus": "",
            "internal_chunk_id": "0-0.2-1.2-1",
            "time_elapsed": 51138,
            "key_press": -1,
            "trial_index": 0,
            "trial_index_global": 11
        },
        {
            "rt": 1308,
            "trial_type": "single-stim",
            "stimulus": "<div class = decision-left style='background:#CCFF99; width:330px;height:230px;'><img class = 'decision-stim' src= 'images/81.png'></img></div><div class = decision-right style='background:#CCFF99; width:330px;height:230px;'><img class = 'decision-stim' src= 'images/82.png'></img></div>",
            "trial_count": 2,
            "internal_chunk_id": "0-0.2-2.0-2",
            "time_elapsed": 52623,
            "key_press": 37,
            "type": "decision_first",
            "trial_index": 0,
            "trial_index_global": 12
        },
        {
            "rt": -1,
            "trial_type": "single-stim",
            "stimulus": "<div class = 'selected decision-left' style='background:#CCFF99; width:330px;height:230px;'><img class = 'decision-stim' src= 'images/81.png'></div><div class = 'decision-right fade' style='background:#CCFF99; width:330px;height:230px;'><img class = 'decision-stim  fade' src= 'images/82.png'></div>",
            "internal_chunk_id": "0-0.2-2.0-2",
            "time_elapsed": 53625,
            "key_press": -1,
            "trial_index": 0,
            "trial_index_global": 13
        },
        {
            "rt": 779,
            "trial_type": "single-stim",
            "stimulus": "<div class = 'decision-top-background faded' style='background:#CCFF99; width:330px;height:230px;'><img class = 'decision-stim' src= 'images/81.png'></div><div class = decision-left style='background:#E0C2FF; width:330px;height:230px;'><img class = 'decision-stim' src= 'images/80.png'></img></div><div class = decision-right style='background:#E0C2FF; width:330px;height:230px;'><img class = 'decision-stim' src= 'images/83.png'></img></div>",
            "trial_count": 2,
            "internal_chunk_id": "0-0.2-2",
            "time_elapsed": 54609,
            "key_press": 39,
            "type": "decision_second",
            "trial_index": 0,
            "trial_index_global": 14
        },
        {
            "rt": -1,
            "trial_type": "single-stim",
            "stimulus": "<div class = 'decision-right selected' style='background:#E0C2FF; width:330px;height:230px;'><img class = 'decision-stim' src= 'images/83.png'></div><div class = 'fade decision-left' style='background:#E0C2FF; width:330px;height:230px;'><img class = 'decision-stim' src= 'images/80.png'></div>",
            "internal_chunk_id": "0-0.2-2.2-2",
            "time_elapsed": 55612,
            "key_press": -1,
            "trial_index": 0,
            "trial_index_global": 15
        },
        {
            "rt": -1,
            "trial_type": "single-stim",
            "stimulus": "<div class = 'decision-top-background faded' style='background:#E0C2FF; width:330px;height:230px;'><img class = 'decision-stim' src= 'images/83.png'></div><div><img  class = decision-fb src = 'images/gold_coin.png'></img></div>",
            "trial_count": 2,
            "internal_chunk_id": "0-0.2-2.2-2",
            "time_elapsed": 56113,
            "key_press": -1,
            "type": "decision_FB",
            "trial_index": 0,
            "trial_index_global": 16
        },
        {
            "rt": -1,
            "trial_type": "single-stim",
            "stimulus": "",
            "internal_chunk_id": "0-0.2-2.2-2",
            "time_elapsed": 57114,
            "key_press": -1,
            "trial_index": 0,
            "trial_index_global": 17
        },
        {
            "rt": 677,
            "trial_type": "single-stim",
            "stimulus": "<div class = decision-left style='background:#CCFF99; width:330px;height:230px;'><img class = 'decision-stim' src= 'images/82.png'></img></div><div class = decision-right style='background:#CCFF99; width:330px;height:230px;'><img class = 'decision-stim' src= 'images/81.png'></img></div>",
            "trial_count": 3,
            "internal_chunk_id": "0-0.2-3.0-3",
            "time_elapsed": 57958,
            "key_press": 37,
            "type": "decision_first",
            "trial_index": 0,
            "trial_index_global": 18
        },
        {
            "rt": -1,
            "trial_type": "single-stim",
            "stimulus": "<div class = 'selected decision-left' style='background:#CCFF99; width:330px;height:230px;'><img class = 'decision-stim' src= 'images/82.png'></div><div class = 'decision-right fade' style='background:#CCFF99; width:330px;height:230px;'><img class = 'decision-stim  fade' src= 'images/81.png'></div>",
            "internal_chunk_id": "0-0.2-3.0-3",
            "time_elapsed": 58960,
            "key_press": -1,
            "trial_index": 0,
            "trial_index_global": 19
        },
        {
            "rt": 480,
            "trial_type": "single-stim",
            "stimulus": "<div class = 'decision-top-background faded' style='background:#CCFF99; width:330px;height:230px;'><img class = 'decision-stim' src= 'images/82.png'></div><div class = decision-left style='background:#F1B8D4; width:330px;height:230px;'><img class = 'decision-stim' src= 'images/84.png'></img></div><div class = decision-right style='background:#F1B8D4; width:330px;height:230px;'><img class = 'decision-stim' src= 'images/85.png'></img></div>",
            "trial_count": 3,
            "internal_chunk_id": "0-0.2-3",
            "time_elapsed": 59631,
            "key_press": 39,
            "type": "decision_second",
            "trial_index": 0,
            "trial_index_global": 20
        },
        {
            "rt": -1,
            "trial_type": "single-stim",
            "stimulus": "<div class = 'decision-right selected' style='background:#F1B8D4; width:330px;height:230px;'><img class = 'decision-stim' src= 'images/85.png'></div><div class = 'fade decision-left' style='background:#F1B8D4; width:330px;height:230px;'><img class = 'decision-stim' src= 'images/84.png'></div>",
            "internal_chunk_id": "0-0.2-3.2-3",
            "time_elapsed": 60633,
            "key_press": -1,
            "trial_index": 0,
            "trial_index_global": 21
        },
        {
            "rt": -1,
            "trial_type": "single-stim",
            "stimulus": "<div class = 'decision-top-background faded' style='background:#F1B8D4; width:330px;height:230px;'><img class = 'decision-stim' src= 'images/85.png'></div><div style = text-align:center><p class = decision-fb style = 'color:red;font-size:60px'>0</p></div>",
            "trial_count": 3,
            "internal_chunk_id": "0-0.2-3.2-3",
            "time_elapsed": 61134,
            "key_press": -1,
            "type": "decision_FB",
            "trial_index": 0,
            "trial_index_global": 22
        },
        {
            "rt": -1,
            "trial_type": "single-stim",
            "stimulus": "",
            "internal_chunk_id": "0-0.2-3.2-3",
            "time_elapsed": 62137,
            "key_press": -1,
            "trial_index": 0,
            "trial_index_global": 23
        },
        {
            "rt": 1348,
            "trial_type": "single-stim",
            "stimulus": "<div class = decision-left style='background:#CCFF99; width:330px;height:230px;'><img class = 'decision-stim' src= 'images/81.png'></img></div><div class = decision-right style='background:#CCFF99; width:330px;height:230px;'><img class = 'decision-stim' src= 'images/82.png'></img></div>",
            "trial_count": 4,
            "internal_chunk_id": "0-0.2-4.0-4",
            "time_elapsed": 63659,
            "key_press": 39,
            "type": "decision_first",
            "trial_index": 0,
            "trial_index_global": 24
        },
        {
            "rt": -1,
            "trial_type": "single-stim",
            "stimulus": "<div class = 'selected decision-right' style='background:#CCFF99; width:330px;height:230px;'><img class = 'decision-stim' src= 'images/82.png'></div><div class = 'decision-left fade' style='background:#CCFF99; width:330px;height:230px;'><img class = 'decision-stim  fade' src= 'images/81.png'></div>",
            "internal_chunk_id": "0-0.2-4.0-4",
            "time_elapsed": 64661,
            "key_press": -1,
            "trial_index": 0,
            "trial_index_global": 25
        },
        {
            "rt": 785,
            "trial_type": "single-stim",
            "stimulus": "<div class = 'decision-top-background faded' style='background:#CCFF99; width:330px;height:230px;'><img class = 'decision-stim' src= 'images/82.png'></div><div class = decision-left style='background:#F1B8D4; width:330px;height:230px;'><img class = 'decision-stim' src= 'images/84.png'></img></div><div class = decision-right style='background:#F1B8D4; width:330px;height:230px;'><img class = 'decision-stim' src= 'images/85.png'></img></div>",
            "trial_count": 4,
            "internal_chunk_id": "0-0.2-4",
            "time_elapsed": 65632,
            "key_press": 39,
            "type": "decision_second",
            "trial_index": 0,
            "trial_index_global": 26
        },
        {
            "rt": -1,
            "trial_type": "single-stim",
            "stimulus": "<div class = 'decision-right selected' style='background:#F1B8D4; width:330px;height:230px;'><img class = 'decision-stim' src= 'images/85.png'></div><div class = 'fade decision-left' style='background:#F1B8D4; width:330px;height:230px;'><img class = 'decision-stim' src= 'images/84.png'></div>",
            "internal_chunk_id": "0-0.2-4.2-4",
            "time_elapsed": 66634,
            "key_press": -1,
            "trial_index": 0,
            "trial_index_global": 27
        },
        {
            "rt": -1,
            "trial_type": "single-stim",
            "stimulus": "<div class = 'decision-top-background faded' style='background:#F1B8D4; width:330px;height:230px;'><img class = 'decision-stim' src= 'images/85.png'></div><div style = text-align:center><p class = decision-fb style = 'color:red;font-size:60px'>0</p></div>",
            "trial_count": 4,
            "internal_chunk_id": "0-0.2-4.2-4",
            "time_elapsed": 67135,
            "key_press": -1,
            "type": "decision_FB",
            "trial_index": 0,
            "trial_index_global": 28
        },
        {
            "rt": -1,
            "trial_type": "single-stim",
            "stimulus": "",
            "internal_chunk_id": "0-0.2-4.2-4",
            "time_elapsed": 68136,
            "key_press": -1,
            "trial_index": 0,
            "trial_index_global": 29
        },
        {
            "rt": 1209,
            "trial_type": "single-stim",
            "stimulus": "<div class = decision-left style='background:#CCFF99; width:330px;height:230px;'><img class = 'decision-stim' src= 'images/82.png'></img></div><div class = decision-right style='background:#CCFF99; width:330px;height:230px;'><img class = 'decision-stim' src= 'images/81.png'></img></div>",
            "trial_count": 5,
            "internal_chunk_id": "0-0.2-5.0-5",
            "time_elapsed": 69503,
            "key_press": 37,
            "type": "decision_first",
            "trial_index": 0,
            "trial_index_global": 30
        },
        {
            "rt": -1,
            "trial_type": "single-stim",
            "stimulus": "<div class = 'selected decision-left' style='background:#CCFF99; width:330px;height:230px;'><img class = 'decision-stim' src= 'images/82.png'></div><div class = 'decision-right fade' style='background:#CCFF99; width:330px;height:230px;'><img class = 'decision-stim  fade' src= 'images/81.png'></div>",
            "internal_chunk_id": "0-0.2-5.0-5",
            "time_elapsed": 70505,
            "key_press": -1,
            "trial_index": 0,
            "trial_index_global": 31
        },
        {
            "rt": 1067,
            "trial_type": "single-stim",
            "stimulus": "<div class = 'decision-top-background faded' style='background:#CCFF99; width:330px;height:230px;'><img class = 'decision-stim' src= 'images/82.png'></div><div class = decision-left style='background:#F1B8D4; width:330px;height:230px;'><img class = 'decision-stim' src= 'images/85.png'></img></div><div class = decision-right style='background:#F1B8D4; width:330px;height:230px;'><img class = 'decision-stim' src= 'images/84.png'></img></div>",
            "trial_count": 5,
            "internal_chunk_id": "0-0.2-5",
            "time_elapsed": 71717,
            "key_press": 37,
            "type": "decision_second",
            "trial_index": 0,
            "trial_index_global": 32
        },
        {
            "rt": -1,
            "trial_type": "single-stim",
            "stimulus": "<div class = 'decision-left selected' style='background:#F1B8D4; width:330px;height:230px;'><img class = 'decision-stim' src= 'images/85.png'></div><div class = 'fade decision-right' style='background:#F1B8D4; width:330px;height:230px;'><img class = 'decision-stim' src= 'images/84.png'></div>",
            "internal_chunk_id": "0-0.2-5.2-5",
            "time_elapsed": 72719,
            "key_press": -1,
            "trial_index": 0,
            "trial_index_global": 33
        },
        {
            "rt": -1,
            "trial_type": "single-stim",
            "stimulus": "<div class = 'decision-top-background faded' style='background:#F1B8D4; width:330px;height:230px;'><img class = 'decision-stim' src= 'images/85.png'></div><div style = text-align:center><p class = decision-fb style = 'color:red;font-size:60px'>0</p></div>",
            "trial_count": 5,
            "internal_chunk_id": "0-0.2-5.2-5",
            "time_elapsed": 73221,
            "key_press": -1,
            "type": "decision_FB",
            "trial_index": 0,
            "trial_index_global": 34
        },
        {
            "rt": -1,
            "trial_type": "single-stim",
            "stimulus": "",
            "internal_chunk_id": "0-0.2-5.2-5",
            "time_elapsed": 74222,
            "key_press": -1,
            "trial_index": 0,
            "trial_index_global": 35
        },
        {
            "rt": 1077,
            "trial_type": "single-stim",
            "stimulus": "<div class = decision-left style='background:#CCFF99; width:330px;height:230px;'><img class = 'decision-stim' src= 'images/82.png'></img></div><div class = decision-right style='background:#CCFF99; width:330px;height:230px;'><img class = 'decision-stim' src= 'images/81.png'></img></div>",
            "trial_count": 6,
            "internal_chunk_id": "0-0.2-6.0-6",
            "time_elapsed": 75462,
            "key_press": 39,
            "type": "decision_first",
            "trial_index": 0,
            "trial_index_global": 36
        },
        {
            "rt": -1,
            "trial_type": "single-stim",
            "stimulus": "<div class = 'selected decision-right' style='background:#CCFF99; width:330px;height:230px;'><img class = 'decision-stim' src= 'images/81.png'></div><div class = 'decision-left fade' style='background:#CCFF99; width:330px;height:230px;'><img class = 'decision-stim  fade' src= 'images/82.png'></div>",
            "internal_chunk_id": "0-0.2-6.0-6",
            "time_elapsed": 76464,
            "key_press": -1,
            "trial_index": 0,
            "trial_index_global": 37
        },
        {
            "rt": 963,
            "trial_type": "single-stim",
            "stimulus": "<div class = 'decision-top-background faded' style='background:#CCFF99; width:330px;height:230px;'><img class = 'decision-stim' src= 'images/81.png'></div><div class = decision-left style='background:#E0C2FF; width:330px;height:230px;'><img class = 'decision-stim' src= 'images/80.png'></img></div><div class = decision-right style='background:#E0C2FF; width:330px;height:230px;'><img class = 'decision-stim' src= 'images/83.png'></img></div>",
            "trial_count": 6,
            "internal_chunk_id": "0-0.2-6",
            "time_elapsed": 77567,
            "key_press": 37,
            "type": "decision_second",
            "trial_index": 0,
            "trial_index_global": 38
        },
        {
            "rt": -1,
            "trial_type": "single-stim",
            "stimulus": "<div class = 'decision-left selected' style='background:#E0C2FF; width:330px;height:230px;'><img class = 'decision-stim' src= 'images/80.png'></div><div class = 'fade decision-right' style='background:#E0C2FF; width:330px;height:230px;'><img class = 'decision-stim' src= 'images/83.png'></div>",
            "internal_chunk_id": "0-0.2-6.2-6",
            "time_elapsed": 78570,
            "key_press": -1,
            "trial_index": 0,
            "trial_index_global": 39
        },
        {
            "rt": -1,
            "trial_type": "single-stim",
            "stimulus": "<div class = 'decision-top-background faded' style='background:#E0C2FF; width:330px;height:230px;'><img class = 'decision-stim' src= 'images/80.png'></div><div style = text-align:center><p class = decision-fb style = 'color:red;font-size:60px'>0</p></div>",
            "trial_count": 6,
            "internal_chunk_id": "0-0.2-6.2-6",
            "time_elapsed": 79071,
            "key_press": -1,
            "type": "decision_FB",
            "trial_index": 0,
            "trial_index_global": 40
        },
        {
            "rt": -1,
            "trial_type": "single-stim",
            "stimulus": "",
            "internal_chunk_id": "0-0.2-6.2-6",
            "time_elapsed": 80073,
            "key_press": -1,
            "trial_index": 0,
            "trial_index_global": 41
        },
        {
            "rt": 1296,
            "trial_type": "single-stim",
            "stimulus": "<div class = decision-left style='background:#CCFF99; width:330px;height:230px;'><img class = 'decision-stim' src= 'images/81.png'></img></div><div class = decision-right style='background:#CCFF99; width:330px;height:230px;'><img class = 'decision-stim' src= 'images/82.png'></img></div>",
            "trial_count": 7,
            "internal_chunk_id": "0-0.2-7.0-7",
            "time_elapsed": 81492,
            "key_press": 37,
            "type": "decision_first",
            "trial_index": 0,
            "trial_index_global": 42
        },
        {
            "rt": -1,
            "trial_type": "single-stim",
            "stimulus": "<div class = 'selected decision-left' style='background:#CCFF99; width:330px;height:230px;'><img class = 'decision-stim' src= 'images/81.png'></div><div class = 'decision-right fade' style='background:#CCFF99; width:330px;height:230px;'><img class = 'decision-stim  fade' src= 'images/82.png'></div>",
            "internal_chunk_id": "0-0.2-7.0-7",
            "time_elapsed": 82495,
            "key_press": -1,
            "trial_index": 0,
            "trial_index_global": 43
        },
        {
            "rt": 1039,
            "trial_type": "single-stim",
            "stimulus": "<div class = 'decision-top-background faded' style='background:#CCFF99; width:330px;height:230px;'><img class = 'decision-stim' src= 'images/81.png'></div><div class = decision-left style='background:#E0C2FF; width:330px;height:230px;'><img class = 'decision-stim' src= 'images/83.png'></img></div><div class = decision-right style='background:#E0C2FF; width:330px;height:230px;'><img class = 'decision-stim' src= 'images/80.png'></img></div>",
            "trial_count": 7,
            "internal_chunk_id": "0-0.2-7",
            "time_elapsed": 83656,
            "key_press": 37,
            "type": "decision_second",
            "trial_index": 0,
            "trial_index_global": 44
        },
        {
            "rt": -1,
            "trial_type": "single-stim",
            "stimulus": "<div class = 'decision-left selected' style='background:#E0C2FF; width:330px;height:230px;'><img class = 'decision-stim' src= 'images/83.png'></div><div class = 'fade decision-right' style='background:#E0C2FF; width:330px;height:230px;'><img class = 'decision-stim' src= 'images/80.png'></div>",
            "internal_chunk_id": "0-0.2-7.2-7",
            "time_elapsed": 84658,
            "key_press": -1,
            "trial_index": 0,
            "trial_index_global": 45
        },
        {
            "rt": -1,
            "trial_type": "single-stim",
            "stimulus": "<div class = 'decision-top-background faded' style='background:#E0C2FF; width:330px;height:230px;'><img class = 'decision-stim' src= 'images/83.png'></div><div style = text-align:center><p class = decision-fb style = 'color:red;font-size:60px'>0</p></div>",
            "trial_count": 7,
            "internal_chunk_id": "0-0.2-7.2-7",
            "time_elapsed": 85159,
            "key_press": -1,
            "type": "decision_FB",
            "trial_index": 0,
            "trial_index_global": 46
        },
        {
            "rt": -1,
            "trial_type": "single-stim",
            "stimulus": "",
            "internal_chunk_id": "0-0.2-7.2-7",
            "time_elapsed": 86160,
            "key_press": -1,
            "trial_index": 0,
            "trial_index_global": 47
        },
        {
            "rt": 574,
            "trial_type": "single-stim",
            "stimulus": "<div class = decision-left style='background:#CCFF99; width:330px;height:230px;'><img class = 'decision-stim' src= 'images/81.png'></img></div><div class = decision-right style='background:#CCFF99; width:330px;height:230px;'><img class = 'decision-stim' src= 'images/82.png'></img></div>",
            "trial_count": 8,
            "internal_chunk_id": "0-0.2-8.0-8",
            "time_elapsed": 86858,
            "key_press": 37,
            "type": "decision_first",
            "trial_index": 0,
            "trial_index_global": 48
        },
        {
            "rt": -1,
            "trial_type": "single-stim",
            "stimulus": "<div class = 'selected decision-left' style='background:#CCFF99; width:330px;height:230px;'><img class = 'decision-stim' src= 'images/81.png'></div><div class = 'decision-right fade' style='background:#CCFF99; width:330px;height:230px;'><img class = 'decision-stim  fade' src= 'images/82.png'></div>",
            "internal_chunk_id": "0-0.2-8.0-8",
            "time_elapsed": 87861,
            "key_press": -1,
            "trial_index": 0,
            "trial_index_global": 49
        },
        {
            "rt": 1084,
            "trial_type": "single-stim",
            "stimulus": "<div class = 'decision-top-background faded' style='background:#CCFF99; width:330px;height:230px;'><img class = 'decision-stim' src= 'images/81.png'></div><div class = decision-left style='background:#E0C2FF; width:330px;height:230px;'><img class = 'decision-stim' src= 'images/83.png'></img></div><div class = decision-right style='background:#E0C2FF; width:330px;height:230px;'><img class = 'decision-stim' src= 'images/80.png'></img></div>",
            "trial_count": 8,
            "internal_chunk_id": "0-0.2-8",
            "time_elapsed": 89063,
            "key_press": 39,
            "type": "decision_second",
            "trial_index": 0,
            "trial_index_global": 50
        },
        {
            "rt": -1,
            "trial_type": "single-stim",
            "stimulus": "<div class = 'decision-right selected' style='background:#E0C2FF; width:330px;height:230px;'><img class = 'decision-stim' src= 'images/80.png'></div><div class = 'fade decision-left' style='background:#E0C2FF; width:330px;height:230px;'><img class = 'decision-stim' src= 'images/83.png'></div>",
            "internal_chunk_id": "0-0.2-8.2-8",
            "time_elapsed": 90065,
            "key_press": -1,
            "trial_index": 0,
            "trial_index_global": 51
        },
        {
            "rt": -1,
            "trial_type": "single-stim",
            "stimulus": "<div class = 'decision-top-background faded' style='background:#E0C2FF; width:330px;height:230px;'><img class = 'decision-stim' src= 'images/80.png'></div><div style = text-align:center><p class = decision-fb style = 'color:red;font-size:60px'>0</p></div>",
            "trial_count": 8,
            "internal_chunk_id": "0-0.2-8.2-8",
            "time_elapsed": 90567,
            "key_press": -1,
            "type": "decision_FB",
            "trial_index": 0,
            "trial_index_global": 52
        },
        {
            "rt": -1,
            "trial_type": "single-stim",
            "stimulus": "",
            "internal_chunk_id": "0-0.2-8.2-8",
            "time_elapsed": 91567,
            "key_press": -1,
            "trial_index": 0,
            "trial_index_global": 53
        },
        {
            "rt": 600,
            "trial_type": "single-stim",
            "stimulus": "<div class = decision-left style='background:#CCFF99; width:330px;height:230px;'><img class = 'decision-stim' src= 'images/81.png'></img></div><div class = decision-right style='background:#CCFF99; width:330px;height:230px;'><img class = 'decision-stim' src= 'images/82.png'></img></div>",
            "trial_count": 9,
            "internal_chunk_id": "0-0.2-9.0-9",
            "time_elapsed": 92322,
            "key_press": 39,
            "type": "decision_first",
            "trial_index": 0,
            "trial_index_global": 54
        },
        {
            "rt": -1,
            "trial_type": "single-stim",
            "stimulus": "<div class = 'selected decision-right' style='background:#CCFF99; width:330px;height:230px;'><img class = 'decision-stim' src= 'images/82.png'></div><div class = 'decision-left fade' style='background:#CCFF99; width:330px;height:230px;'><img class = 'decision-stim  fade' src= 'images/81.png'></div>",
            "internal_chunk_id": "0-0.2-9.0-9",
            "time_elapsed": 93325,
            "key_press": -1,
            "trial_index": 0,
            "trial_index_global": 55
        },
        {
            "rt": 959,
            "trial_type": "single-stim",
            "stimulus": "<div class = 'decision-top-background faded' style='background:#CCFF99; width:330px;height:230px;'><img class = 'decision-stim' src= 'images/82.png'></div><div class = decision-left style='background:#F1B8D4; width:330px;height:230px;'><img class = 'decision-stim' src= 'images/85.png'></img></div><div class = decision-right style='background:#F1B8D4; width:330px;height:230px;'><img class = 'decision-stim' src= 'images/84.png'></img></div>",
            "trial_count": 9,
            "internal_chunk_id": "0-0.2-9",
            "time_elapsed": 94396,
            "key_press": 37,
            "type": "decision_second",
            "trial_index": 0,
            "trial_index_global": 56
        },
        {
            "rt": -1,
            "trial_type": "single-stim",
            "stimulus": "<div class = 'decision-left selected' style='background:#F1B8D4; width:330px;height:230px;'><img class = 'decision-stim' src= 'images/85.png'></div><div class = 'fade decision-right' style='background:#F1B8D4; width:330px;height:230px;'><img class = 'decision-stim' src= 'images/84.png'></div>",
            "internal_chunk_id": "0-0.2-9.2-9",
            "time_elapsed": 95399,
            "key_press": -1,
            "trial_index": 0,
            "trial_index_global": 57
        },
        {
            "rt": -1,
            "trial_type": "single-stim",
            "stimulus": "<div class = 'decision-top-background faded' style='background:#F1B8D4; width:330px;height:230px;'><img class = 'decision-stim' src= 'images/85.png'></div><div style = text-align:center><p class = decision-fb style = 'color:red;font-size:60px'>0</p></div>",
            "trial_count": 9,
            "internal_chunk_id": "0-0.2-9.2-9",
            "time_elapsed": 95900,
            "key_press": -1,
            "type": "decision_FB",
            "trial_index": 0,
            "trial_index_global": 58
        },
        {
            "rt": -1,
            "trial_type": "single-stim",
            "stimulus": "",
            "internal_chunk_id": "0-0.2-9.2-9",
            "time_elapsed": 96902,
            "key_press": -1,
            "trial_index": 0,
            "trial_index_global": 59
        },
        {
            "rt": 13808,
            "trial_type": "text",
            "internal_chunk_id": "0-0",
            "time_elapsed": 110802,
            "key_press": 13,
            "trial_index": 0,
            "trial_index_global": 60
        },
        {
            "rt": -1,
            "trial_type": "single-stim",
            "stimulus": "",
            "internal_chunk_id": "0-0",
            "time_elapsed": 111808,
            "key_press": -1,
            "global_params": {
                "second_stage_stim": {
                    "stimulus": [
                        "<div class = decision-left style='background:#FF9966; width:330px;height:230px;'><img class = 'decision-stim' src= 'images/11.png'></img></div><div class = decision-right style='background:#FF9966; width:330px;height:230px;'><img class = 'decision-stim' src= 'images/16.png'></img></div>",
                        "<div class = decision-left style='background:#FF9966; width:330px;height:230px;'><img class = 'decision-stim' src= 'images/16.png'></img></div><div class = decision-right style='background:#FF9966; width:330px;height:230px;'><img class = 'decision-stim' src= 'images/11.png'></img></div>",
                        "<div class = decision-left style='background:#C2C2FF; width:330px;height:230px;'><img class = 'decision-stim' src= 'images/14.png'></img></div><div class = decision-right style='background:#C2C2FF; width:330px;height:230px;'><img class = 'decision-stim' src= 'images/12.png'></img></div>",
                        "<div class = decision-left style='background:#C2C2FF; width:330px;height:230px;'><img class = 'decision-stim' src= 'images/12.png'></img></div><div class = decision-right style='background:#C2C2FF; width:330px;height:230px;'><img class = 'decision-stim' src= 'images/14.png'></img></div>"
                    ],
                    "id": [
                        [
                            2,
                            3
                        ],
                        [
                            3,
                            2
                        ],
                        [
                            4,
                            5
                        ],
                        [
                            5,
                            4
                        ]
                    ]
                },
                "stims": [
                    "images/13.png",
                    "images/15.png",
                    "images/11.png",
                    "images/16.png",
                    "images/14.png",
                    "images/12.png"
                ],
                "fs_stim": [
                    {
                        "stimulus": "<div class = decision-left style='background:#98bf21; width:330px;height:230px;'><img class = 'decision-stim' src= 'images/13.png'></img></div><div class = decision-right style='background:#98bf21; width:330px;height:230px;'><img class = 'decision-stim' src= 'images/15.png'></img></div>",
                        "id": [
                            0,
                            1
                        ]
                    },
                    {
                        "stimulus": "<div class = decision-left style='background:#98bf21; width:330px;height:230px;'><img class = 'decision-stim' src= 'images/15.png'></img></div><div class = decision-right style='background:#98bf21; width:330px;height:230px;'><img class = 'decision-stim' src= 'images/13.png'></img></div>",
                        "id": [
                            1,
                            0
                        ]
                    }
                ],
                "condition": "test",
                "actions": [
                    37,
                    39
                ]
            },
            "type": "decision_global",
            "trial_index": 0,
            "trial_index_global": 61
        },
        {
            "rt": 861,
            "trial_type": "single-stim",
            "stimulus": "<div class = decision-left style='background:#98bf21; width:330px;height:230px;'><img class = 'decision-stim' src= 'images/13.png'></img></div><div class = decision-right style='background:#98bf21; width:330px;height:230px;'><img class = 'decision-stim' src= 'images/15.png'></img></div>",
            "trial_count": 0,
            "internal_chunk_id": "0-0.5-0.0-0",
            "time_elapsed": 112803,
            "key_press": 37,
            "type": "decision_first",
            "trial_index": 0,
            "trial_index_global": 62
        },
        {
            "rt": -1,
            "trial_type": "single-stim",
            "stimulus": "<div class = 'selected decision-left' style='background:#98bf21; width:330px;height:230px;'><img class = 'decision-stim' src= 'images/13.png'></div><div class = 'decision-right fade' style='background:#98bf21; width:330px;height:230px;'><img class = 'decision-stim  fade' src= 'images/15.png'></div>",
            "internal_chunk_id": "0-0.5-0.0-0",
            "time_elapsed": 113807,
            "key_press": -1,
            "trial_index": 0,
            "trial_index_global": 63
        },
        {
            "rt": 918,
            "trial_type": "single-stim",
            "stimulus": "<div class = 'decision-top-background faded' style='background:#98bf21; width:330px;height:230px;'><img class = 'decision-stim' src= 'images/13.png'></div><div class = decision-left style='background:#C2C2FF; width:330px;height:230px;'><img class = 'decision-stim' src= 'images/12.png'></img></div><div class = decision-right style='background:#C2C2FF; width:330px;height:230px;'><img class = 'decision-stim' src= 'images/14.png'></img></div>",
            "trial_count": 0,
            "internal_chunk_id": "0-0.5-0",
            "time_elapsed": 114850,
            "key_press": 39,
            "type": "decision_second",
            "trial_index": 0,
            "trial_index_global": 64
        },
        {
            "rt": -1,
            "trial_type": "single-stim",
            "stimulus": "<div class = 'decision-right selected' style='background:#C2C2FF; width:330px;height:230px;'><img class = 'decision-stim' src= 'images/14.png'></div><div class = 'fade decision-left' style='background:#C2C2FF; width:330px;height:230px;'><img class = 'decision-stim' src= 'images/12.png'></div>",
            "internal_chunk_id": "0-0.5-0.2-0",
            "time_elapsed": 115853,
            "key_press": -1,
            "trial_index": 0,
            "trial_index_global": 65
        },
        {
            "rt": -1,
            "trial_type": "single-stim",
            "stimulus": "<div class = 'decision-top-background faded' style='background:#C2C2FF; width:330px;height:230px;'><img class = 'decision-stim' src= 'images/14.png'></div><div><img  class = decision-fb src = 'images/gold_coin.png'></img></div>",
            "trial_count": 0,
            "internal_chunk_id": "0-0.5-0.2-0",
            "time_elapsed": 116355,
            "key_press": -1,
            "type": "decision_FB",
            "trial_index": 0,
            "trial_index_global": 66
        },
        {
            "rt": -1,
            "trial_type": "single-stim",
            "stimulus": "",
            "internal_chunk_id": "0-0.5-0.2-0",
            "time_elapsed": 117356,
            "key_press": -1,
            "trial_index": 0,
            "trial_index_global": 67
        },
        {
            "rt": 778,
            "trial_type": "single-stim",
            "stimulus": "<div class = decision-left style='background:#98bf21; width:330px;height:230px;'><img class = 'decision-stim' src= 'images/15.png'></img></div><div class = decision-right style='background:#98bf21; width:330px;height:230px;'><img class = 'decision-stim' src= 'images/13.png'></img></div>",
            "trial_count": 1,
            "internal_chunk_id": "0-0.5-1.0-1",
            "time_elapsed": 118290,
            "key_press": 39,
            "type": "decision_first",
            "trial_index": 0,
            "trial_index_global": 68
        },
        {
            "rt": -1,
            "trial_type": "single-stim",
            "stimulus": "<div class = 'selected decision-right' style='background:#98bf21; width:330px;height:230px;'><img class = 'decision-stim' src= 'images/13.png'></div><div class = 'decision-left fade' style='background:#98bf21; width:330px;height:230px;'><img class = 'decision-stim  fade' src= 'images/15.png'></div>",
            "internal_chunk_id": "0-0.5-1.0-1",
            "time_elapsed": 119293,
            "key_press": -1,
            "trial_index": 0,
            "trial_index_global": 69
        },
        {
            "rt": 1424,
            "trial_type": "single-stim",
            "stimulus": "<div class = 'decision-top-background faded' style='background:#98bf21; width:330px;height:230px;'><img class = 'decision-stim' src= 'images/13.png'></div><div class = decision-left style='background:#FF9966; width:330px;height:230px;'><img class = 'decision-stim' src= 'images/16.png'></img></div><div class = decision-right style='background:#FF9966; width:330px;height:230px;'><img class = 'decision-stim' src= 'images/11.png'></img></div>",
            "trial_count": 1,
            "internal_chunk_id": "0-0.5-1",
            "time_elapsed": 120872,
            "key_press": 37,
            "type": "decision_second",
            "trial_index": 0,
            "trial_index_global": 70
        },
        {
            "rt": -1,
            "trial_type": "single-stim",
            "stimulus": "<div class = 'decision-left selected' style='background:#FF9966; width:330px;height:230px;'><img class = 'decision-stim' src= 'images/16.png'></div><div class = 'fade decision-right' style='background:#FF9966; width:330px;height:230px;'><img class = 'decision-stim' src= 'images/11.png'></div>",
            "internal_chunk_id": "0-0.5-1.2-1",
            "time_elapsed": 121876,
            "key_press": -1,
            "trial_index": 0,
            "trial_index_global": 71
        },
        {
            "rt": -1,
            "trial_type": "single-stim",
            "stimulus": "<div class = 'decision-top-background faded' style='background:#FF9966; width:330px;height:230px;'><img class = 'decision-stim' src= 'images/16.png'></div><div style = text-align:center><p class = decision-fb style = 'color:red;font-size:60px'>0</p></div>",
            "trial_count": 1,
            "internal_chunk_id": "0-0.5-1.2-1",
            "time_elapsed": 122378,
            "key_press": -1,
            "type": "decision_FB",
            "trial_index": 0,
            "trial_index_global": 72
        },
        {
            "rt": -1,
            "trial_type": "single-stim",
            "stimulus": "",
            "internal_chunk_id": "0-0.5-1.2-1",
            "time_elapsed": 123379,
            "key_press": -1,
            "trial_index": 0,
            "trial_index_global": 73
        },
        {
            "rt": 897,
            "trial_type": "single-stim",
            "stimulus": "<div class = decision-left style='background:#98bf21; width:330px;height:230px;'><img class = 'decision-stim' src= 'images/13.png'></img></div><div class = decision-right style='background:#98bf21; width:330px;height:230px;'><img class = 'decision-stim' src= 'images/15.png'></img></div>",
            "trial_count": 2,
            "internal_chunk_id": "0-0.5-2.0-2",
            "time_elapsed": 124425,
            "key_press": 39,
            "type": "decision_first",
            "trial_index": 0,
            "trial_index_global": 74
        },
        {
            "rt": -1,
            "trial_type": "single-stim",
            "stimulus": "<div class = 'selected decision-right' style='background:#98bf21; width:330px;height:230px;'><img class = 'decision-stim' src= 'images/15.png'></div><div class = 'decision-left fade' style='background:#98bf21; width:330px;height:230px;'><img class = 'decision-stim  fade' src= 'images/13.png'></div>",
            "internal_chunk_id": "0-0.5-2.0-2",
            "time_elapsed": 125427,
            "key_press": -1,
            "trial_index": 0,
            "trial_index_global": 75
        },
        {
            "rt": 1171,
            "trial_type": "single-stim",
            "stimulus": "<div class = 'decision-top-background faded' style='background:#98bf21; width:330px;height:230px;'><img class = 'decision-stim' src= 'images/15.png'></div><div class = decision-left style='background:#C2C2FF; width:330px;height:230px;'><img class = 'decision-stim' src= 'images/12.png'></img></div><div class = decision-right style='background:#C2C2FF; width:330px;height:230px;'><img class = 'decision-stim' src= 'images/14.png'></img></div>",
            "trial_count": 2,
            "internal_chunk_id": "0-0.5-2",
            "time_elapsed": 126728,
            "key_press": 37,
            "type": "decision_second",
            "trial_index": 0,
            "trial_index_global": 76
        },
        {
            "rt": -1,
            "trial_type": "single-stim",
            "stimulus": "<div class = 'decision-left selected' style='background:#C2C2FF; width:330px;height:230px;'><img class = 'decision-stim' src= 'images/12.png'></div><div class = 'fade decision-right' style='background:#C2C2FF; width:330px;height:230px;'><img class = 'decision-stim' src= 'images/14.png'></div>",
            "internal_chunk_id": "0-0.5-2.2-2",
            "time_elapsed": 127732,
            "key_press": -1,
            "trial_index": 0,
            "trial_index_global": 77
        },
        {
            "rt": -1,
            "trial_type": "single-stim",
            "stimulus": "<div class = 'decision-top-background faded' style='background:#C2C2FF; width:330px;height:230px;'><img class = 'decision-stim' src= 'images/12.png'></div><div style = text-align:center><p class = decision-fb style = 'color:red;font-size:60px'>0</p></div>",
            "trial_count": 2,
            "internal_chunk_id": "0-0.5-2.2-2",
            "time_elapsed": 128235,
            "key_press": -1,
            "type": "decision_FB",
            "trial_index": 0,
            "trial_index_global": 78
        },
        {
            "rt": -1,
            "trial_type": "single-stim",
            "stimulus": "",
            "internal_chunk_id": "0-0.5-2.2-2",
            "time_elapsed": 129236,
            "key_press": -1,
            "trial_index": 0,
            "trial_index_global": 79
        },
        {
            "rt": 686,
            "trial_type": "single-stim",
            "stimulus": "<div class = decision-left style='background:#98bf21; width:330px;height:230px;'><img class = 'decision-stim' src= 'images/15.png'></img></div><div class = decision-right style='background:#98bf21; width:330px;height:230px;'><img class = 'decision-stim' src= 'images/13.png'></img></div>",
            "trial_count": 3,
            "internal_chunk_id": "0-0.5-3.0-3",
            "time_elapsed": 130065,
            "key_press": 37,
            "type": "decision_first",
            "trial_index": 0,
            "trial_index_global": 80
        },
        {
            "rt": -1,
            "trial_type": "single-stim",
            "stimulus": "<div class = 'selected decision-left' style='background:#98bf21; width:330px;height:230px;'><img class = 'decision-stim' src= 'images/15.png'></div><div class = 'decision-right fade' style='background:#98bf21; width:330px;height:230px;'><img class = 'decision-stim  fade' src= 'images/13.png'></div>",
            "internal_chunk_id": "0-0.5-3.0-3",
            "time_elapsed": 131068,
            "key_press": -1,
            "trial_index": 0,
            "trial_index_global": 81
        },
        {
            "rt": 706,
            "trial_type": "single-stim",
            "stimulus": "<div class = 'decision-top-background faded' style='background:#98bf21; width:330px;height:230px;'><img class = 'decision-stim' src= 'images/15.png'></div><div class = decision-left style='background:#C2C2FF; width:330px;height:230px;'><img class = 'decision-stim' src= 'images/12.png'></img></div><div class = decision-right style='background:#C2C2FF; width:330px;height:230px;'><img class = 'decision-stim' src= 'images/14.png'></img></div>",
            "trial_count": 3,
            "internal_chunk_id": "0-0.5-3",
            "time_elapsed": 131951,
            "key_press": 39,
            "type": "decision_second",
            "trial_index": 0,
            "trial_index_global": 82
        },
        {
            "rt": -1,
            "trial_type": "single-stim",
            "stimulus": "<div class = 'decision-right selected' style='background:#C2C2FF; width:330px;height:230px;'><img class = 'decision-stim' src= 'images/14.png'></div><div class = 'fade decision-left' style='background:#C2C2FF; width:330px;height:230px;'><img class = 'decision-stim' src= 'images/12.png'></div>",
            "internal_chunk_id": "0-0.5-3.2-3",
            "time_elapsed": 132954,
            "key_press": -1,
            "trial_index": 0,
            "trial_index_global": 83
        },
        {
            "rt": -1,
            "trial_type": "single-stim",
            "stimulus": "<div class = 'decision-top-background faded' style='background:#C2C2FF; width:330px;height:230px;'><img class = 'decision-stim' src= 'images/14.png'></div><div><img  class = decision-fb src = 'images/gold_coin.png'></img></div>",
            "trial_count": 3,
            "internal_chunk_id": "0-0.5-3.2-3",
            "time_elapsed": 133455,
            "key_press": -1,
            "type": "decision_FB",
            "trial_index": 0,
            "trial_index_global": 84
        },
        {
            "rt": -1,
            "trial_type": "single-stim",
            "stimulus": "",
            "internal_chunk_id": "0-0.5-3.2-3",
            "time_elapsed": 134458,
            "key_press": -1,
            "trial_index": 0,
            "trial_index_global": 85
        },
        {
            "rt": 1165,
            "trial_type": "single-stim",
            "stimulus": "<div class = decision-left style='background:#98bf21; width:330px;height:230px;'><img class = 'decision-stim' src= 'images/15.png'></img></div><div class = decision-right style='background:#98bf21; width:330px;height:230px;'><img class = 'decision-stim' src= 'images/13.png'></img></div>",
            "trial_count": 4,
            "internal_chunk_id": "0-0.5-4.0-4",
            "time_elapsed": 135802,
            "key_press": 39,
            "type": "decision_first",
            "trial_index": 0,
            "trial_index_global": 86
        },
        {
            "rt": -1,
            "trial_type": "single-stim",
            "stimulus": "<div class = 'selected decision-right' style='background:#98bf21; width:330px;height:230px;'><img class = 'decision-stim' src= 'images/13.png'></div><div class = 'decision-left fade' style='background:#98bf21; width:330px;height:230px;'><img class = 'decision-stim  fade' src= 'images/15.png'></div>",
            "internal_chunk_id": "0-0.5-4.0-4",
            "time_elapsed": 136805,
            "key_press": -1,
            "trial_index": 0,
            "trial_index_global": 87
        },
        {
            "rt": 1195,
            "trial_type": "single-stim",
            "stimulus": "<div class = 'decision-top-background faded' style='background:#98bf21; width:330px;height:230px;'><img class = 'decision-stim' src= 'images/13.png'></div><div class = decision-left style='background:#FF9966; width:330px;height:230px;'><img class = 'decision-stim' src= 'images/11.png'></img></div><div class = decision-right style='background:#FF9966; width:330px;height:230px;'><img class = 'decision-stim' src= 'images/16.png'></img></div>",
            "trial_count": 4,
            "internal_chunk_id": "0-0.5-4",
            "time_elapsed": 138146,
            "key_press": 37,
            "type": "decision_second",
            "trial_index": 0,
            "trial_index_global": 88
        },
        {
            "rt": -1,
            "trial_type": "single-stim",
            "stimulus": "<div class = 'decision-left selected' style='background:#FF9966; width:330px;height:230px;'><img class = 'decision-stim' src= 'images/11.png'></div><div class = 'fade decision-right' style='background:#FF9966; width:330px;height:230px;'><img class = 'decision-stim' src= 'images/16.png'></div>",
            "internal_chunk_id": "0-0.5-4.2-4",
            "time_elapsed": 139148,
            "key_press": -1,
            "trial_index": 0,
            "trial_index_global": 89
        },
        {
            "rt": -1,
            "trial_type": "single-stim",
            "stimulus": "<div class = 'decision-top-background faded' style='background:#FF9966; width:330px;height:230px;'><img class = 'decision-stim' src= 'images/11.png'></div><div><img  class = decision-fb src = 'images/gold_coin.png'></img></div>",
            "trial_count": 4,
            "internal_chunk_id": "0-0.5-4.2-4",
            "time_elapsed": 139650,
            "key_press": -1,
            "type": "decision_FB",
            "trial_index": 0,
            "trial_index_global": 90
        },
        {
            "rt": -1,
            "trial_type": "single-stim",
            "stimulus": "",
            "internal_chunk_id": "0-0.5-4.2-4",
            "time_elapsed": 140650,
            "key_press": -1,
            "trial_index": 0,
            "trial_index_global": 91
        },
        {
            "rt": 644,
            "trial_type": "single-stim",
            "stimulus": "<div class = decision-left style='background:#98bf21; width:330px;height:230px;'><img class = 'decision-stim' src= 'images/13.png'></img></div><div class = decision-right style='background:#98bf21; width:330px;height:230px;'><img class = 'decision-stim' src= 'images/15.png'></img></div>",
            "trial_count": 5,
            "internal_chunk_id": "0-0.5-5.0-5",
            "time_elapsed": 141470,
            "key_press": 39,
            "type": "decision_first",
            "trial_index": 0,
            "trial_index_global": 92
        },
        {
            "rt": -1,
            "trial_type": "single-stim",
            "stimulus": "<div class = 'selected decision-right' style='background:#98bf21; width:330px;height:230px;'><img class = 'decision-stim' src= 'images/15.png'></div><div class = 'decision-left fade' style='background:#98bf21; width:330px;height:230px;'><img class = 'decision-stim  fade' src= 'images/13.png'></div>",
            "internal_chunk_id": "0-0.5-5.0-5",
            "time_elapsed": 142474,
            "key_press": -1,
            "trial_index": 0,
            "trial_index_global": 93
        },
        {
            "rt": 1638,
            "trial_type": "single-stim",
            "stimulus": "<div class = 'decision-top-background faded' style='background:#98bf21; width:330px;height:230px;'><img class = 'decision-stim' src= 'images/15.png'></div><div class = decision-left style='background:#C2C2FF; width:330px;height:230px;'><img class = 'decision-stim' src= 'images/14.png'></img></div><div class = decision-right style='background:#C2C2FF; width:330px;height:230px;'><img class = 'decision-stim' src= 'images/12.png'></img></div>",
            "trial_count": 5,
            "internal_chunk_id": "0-0.5-5",
            "time_elapsed": 144263,
            "key_press": 37,
            "type": "decision_second",
            "trial_index": 0,
            "trial_index_global": 94
        },
        {
            "rt": -1,
            "trial_type": "single-stim",
            "stimulus": "<div class = 'decision-left selected' style='background:#C2C2FF; width:330px;height:230px;'><img class = 'decision-stim' src= 'images/14.png'></div><div class = 'fade decision-right' style='background:#C2C2FF; width:330px;height:230px;'><img class = 'decision-stim' src= 'images/12.png'></div>",
            "internal_chunk_id": "0-0.5-5.2-5",
            "time_elapsed": 145267,
            "key_press": -1,
            "trial_index": 0,
            "trial_index_global": 95
        },
        {
            "rt": -1,
            "trial_type": "single-stim",
            "stimulus": "<div class = 'decision-top-background faded' style='background:#C2C2FF; width:330px;height:230px;'><img class = 'decision-stim' src= 'images/14.png'></div><div style = text-align:center><p class = decision-fb style = 'color:red;font-size:60px'>0</p></div>",
            "trial_count": 5,
            "internal_chunk_id": "0-0.5-5.2-5",
            "time_elapsed": 145768,
            "key_press": -1,
            "type": "decision_FB",
            "trial_index": 0,
            "trial_index_global": 96
        },
        {
            "rt": -1,
            "trial_type": "single-stim",
            "stimulus": "",
            "internal_chunk_id": "0-0.5-5.2-5",
            "time_elapsed": 146769,
            "key_press": -1,
            "trial_index": 0,
            "trial_index_global": 97
        },
        {
            "rt": 1191,
            "trial_type": "single-stim",
            "stimulus": "<div class = decision-left style='background:#98bf21; width:330px;height:230px;'><img class = 'decision-stim' src= 'images/15.png'></img></div><div class = decision-right style='background:#98bf21; width:330px;height:230px;'><img class = 'decision-stim' src= 'images/13.png'></img></div>",
            "trial_count": 6,
            "internal_chunk_id": "0-0.5-6.0-6",
            "time_elapsed": 148142,
            "key_press": 39,
            "type": "decision_first",
            "trial_index": 0,
            "trial_index_global": 98
        },
        {
            "rt": -1,
            "trial_type": "single-stim",
            "stimulus": "<div class = 'selected decision-right' style='background:#98bf21; width:330px;height:230px;'><img class = 'decision-stim' src= 'images/13.png'></div><div class = 'decision-left fade' style='background:#98bf21; width:330px;height:230px;'><img class = 'decision-stim  fade' src= 'images/15.png'></div>",
            "internal_chunk_id": "0-0.5-6.0-6",
            "time_elapsed": 149147,
            "key_press": -1,
            "trial_index": 0,
            "trial_index_global": 99
        },
        {
            "rt": 1343,
            "trial_type": "single-stim",
            "stimulus": "<div class = 'decision-top-background faded' style='background:#98bf21; width:330px;height:230px;'><img class = 'decision-stim' src= 'images/13.png'></div><div class = decision-left style='background:#FF9966; width:330px;height:230px;'><img class = 'decision-stim' src= 'images/16.png'></img></div><div class = decision-right style='background:#FF9966; width:330px;height:230px;'><img class = 'decision-stim' src= 'images/11.png'></img></div>",
            "trial_count": 6,
            "internal_chunk_id": "0-0.5-6",
            "time_elapsed": 150684,
            "key_press": 37,
            "type": "decision_second",
            "trial_index": 0,
            "trial_index_global": 100
        },
        {
            "rt": -1,
            "trial_type": "single-stim",
            "stimulus": "<div class = 'decision-left selected' style='background:#FF9966; width:330px;height:230px;'><img class = 'decision-stim' src= 'images/16.png'></div><div class = 'fade decision-right' style='background:#FF9966; width:330px;height:230px;'><img class = 'decision-stim' src= 'images/11.png'></div>",
            "internal_chunk_id": "0-0.5-6.2-6",
            "time_elapsed": 151690,
            "key_press": -1,
            "trial_index": 0,
            "trial_index_global": 101
        },
        {
            "rt": -1,
            "trial_type": "single-stim",
            "stimulus": "<div class = 'decision-top-background faded' style='background:#FF9966; width:330px;height:230px;'><img class = 'decision-stim' src= 'images/16.png'></div><div><img  class = decision-fb src = 'images/gold_coin.png'></img></div>",
            "trial_count": 6,
            "internal_chunk_id": "0-0.5-6.2-6",
            "time_elapsed": 152193,
            "key_press": -1,
            "type": "decision_FB",
            "trial_index": 0,
            "trial_index_global": 102
        },
        {
            "rt": -1,
            "trial_type": "single-stim",
            "stimulus": "",
            "internal_chunk_id": "0-0.5-6.2-6",
            "time_elapsed": 153193,
            "key_press": -1,
            "trial_index": 0,
            "trial_index_global": 103
        },
        {
            "rt": 588,
            "trial_type": "single-stim",
            "stimulus": "<div class = decision-left style='background:#98bf21; width:330px;height:230px;'><img class = 'decision-stim' src= 'images/15.png'></img></div><div class = decision-right style='background:#98bf21; width:330px;height:230px;'><img class = 'decision-stim' src= 'images/13.png'></img></div>",
            "trial_count": 7,
            "internal_chunk_id": "0-0.5-7.0-7",
            "time_elapsed": 153907,
            "key_press": 39,
            "type": "decision_first",
            "trial_index": 0,
            "trial_index_global": 104
        },
        {
            "rt": -1,
            "trial_type": "single-stim",
            "stimulus": "<div class = 'selected decision-right' style='background:#98bf21; width:330px;height:230px;'><img class = 'decision-stim' src= 'images/13.png'></div><div class = 'decision-left fade' style='background:#98bf21; width:330px;height:230px;'><img class = 'decision-stim  fade' src= 'images/15.png'></div>",
            "internal_chunk_id": "0-0.5-7.0-7",
            "time_elapsed": 154911,
            "key_press": -1,
            "trial_index": 0,
            "trial_index_global": 105
        },
        {
            "rt": 918,
            "trial_type": "single-stim",
            "stimulus": "<div class = 'decision-top-background faded' style='background:#98bf21; width:330px;height:230px;'><img class = 'decision-stim' src= 'images/13.png'></div><div class = decision-left style='background:#C2C2FF; width:330px;height:230px;'><img class = 'decision-stim' src= 'images/12.png'></img></div><div class = decision-right style='background:#C2C2FF; width:330px;height:230px;'><img class = 'decision-stim' src= 'images/14.png'></img></div>",
            "trial_count": 7,
            "internal_chunk_id": "0-0.5-7",
            "time_elapsed": 155985,
            "key_press": 39,
            "type": "decision_second",
            "trial_index": 0,
            "trial_index_global": 106
        },
        {
            "rt": -1,
            "trial_type": "single-stim",
            "stimulus": "<div class = 'decision-right selected' style='background:#C2C2FF; width:330px;height:230px;'><img class = 'decision-stim' src= 'images/14.png'></div><div class = 'fade decision-left' style='background:#C2C2FF; width:330px;height:230px;'><img class = 'decision-stim' src= 'images/12.png'></div>",
            "internal_chunk_id": "0-0.5-7.2-7",
            "time_elapsed": 156989,
            "key_press": -1,
            "trial_index": 0,
            "trial_index_global": 107
        },
        {
            "rt": -1,
            "trial_type": "single-stim",
            "stimulus": "<div class = 'decision-top-background faded' style='background:#C2C2FF; width:330px;height:230px;'><img class = 'decision-stim' src= 'images/14.png'></div><div style = text-align:center><p class = decision-fb style = 'color:red;font-size:60px'>0</p></div>",
            "trial_count": 7,
            "internal_chunk_id": "0-0.5-7.2-7",
            "time_elapsed": 157491,
            "key_press": -1,
            "type": "decision_FB",
            "trial_index": 0,
            "trial_index_global": 108
        },
        {
            "rt": -1,
            "trial_type": "single-stim",
            "stimulus": "",
            "internal_chunk_id": "0-0.5-7.2-7",
            "time_elapsed": 158492,
            "key_press": -1,
            "trial_index": 0,
            "trial_index_global": 109
        },
        {
            "rt": 1157,
            "trial_type": "single-stim",
            "stimulus": "<div class = decision-left style='background:#98bf21; width:330px;height:230px;'><img class = 'decision-stim' src= 'images/13.png'></img></div><div class = decision-right style='background:#98bf21; width:330px;height:230px;'><img class = 'decision-stim' src= 'images/15.png'></img></div>",
            "trial_count": 8,
            "internal_chunk_id": "0-0.5-8.0-8",
            "time_elapsed": 159810,
            "key_press": 39,
            "type": "decision_first",
            "trial_index": 0,
            "trial_index_global": 110
        },
        {
            "rt": -1,
            "trial_type": "single-stim",
            "stimulus": "<div class = 'selected decision-right' style='background:#98bf21; width:330px;height:230px;'><img class = 'decision-stim' src= 'images/15.png'></div><div class = 'decision-left fade' style='background:#98bf21; width:330px;height:230px;'><img class = 'decision-stim  fade' src= 'images/13.png'></div>",
            "internal_chunk_id": "0-0.5-8.0-8",
            "time_elapsed": 160814,
            "key_press": -1,
            "trial_index": 0,
            "trial_index_global": 111
        },
        {
            "rt": 1323,
            "trial_type": "single-stim",
            "stimulus": "<div class = 'decision-top-background faded' style='background:#98bf21; width:330px;height:230px;'><img class = 'decision-stim' src= 'images/15.png'></div><div class = decision-left style='background:#FF9966; width:330px;height:230px;'><img class = 'decision-stim' src= 'images/16.png'></img></div><div class = decision-right style='background:#FF9966; width:330px;height:230px;'><img class = 'decision-stim' src= 'images/11.png'></img></div>",
            "trial_count": 8,
            "internal_chunk_id": "0-0.5-8",
            "time_elapsed": 162325,
            "key_press": 39,
            "type": "decision_second",
            "trial_index": 0,
            "trial_index_global": 112
        },
        {
            "rt": -1,
            "trial_type": "single-stim",
            "stimulus": "<div class = 'decision-right selected' style='background:#FF9966; width:330px;height:230px;'><img class = 'decision-stim' src= 'images/11.png'></div><div class = 'fade decision-left' style='background:#FF9966; width:330px;height:230px;'><img class = 'decision-stim' src= 'images/16.png'></div>",
            "internal_chunk_id": "0-0.5-8.2-8",
            "time_elapsed": 163328,
            "key_press": -1,
            "trial_index": 0,
            "trial_index_global": 113
        },
        {
            "rt": -1,
            "trial_type": "single-stim",
            "stimulus": "<div class = 'decision-top-background faded' style='background:#FF9966; width:330px;height:230px;'><img class = 'decision-stim' src= 'images/11.png'></div><div><img  class = decision-fb src = 'images/gold_coin.png'></img></div>",
            "trial_count": 8,
            "internal_chunk_id": "0-0.5-8.2-8",
            "time_elapsed": 163829,
            "key_press": -1,
            "type": "decision_FB",
            "trial_index": 0,
            "trial_index_global": 114
        },
        {
            "rt": -1,
            "trial_type": "single-stim",
            "stimulus": "",
            "internal_chunk_id": "0-0.5-8.2-8",
            "time_elapsed": 164830,
            "key_press": -1,
            "trial_index": 0,
            "trial_index_global": 115
        },
        {
            "rt": 529,
            "trial_type": "single-stim",
            "stimulus": "<div class = decision-left style='background:#98bf21; width:330px;height:230px;'><img class = 'decision-stim' src= 'images/13.png'></img></div><div class = decision-right style='background:#98bf21; width:330px;height:230px;'><img class = 'decision-stim' src= 'images/15.png'></img></div>",
            "trial_count": 9,
            "internal_chunk_id": "0-0.5-9.0-9",
            "time_elapsed": 165530,
            "key_press": 37,
            "type": "decision_first",
            "trial_index": 0,
            "trial_index_global": 116
        },
        {
            "rt": -1,
            "trial_type": "single-stim",
            "stimulus": "<div class = 'selected decision-left' style='background:#98bf21; width:330px;height:230px;'><img class = 'decision-stim' src= 'images/13.png'></div><div class = 'decision-right fade' style='background:#98bf21; width:330px;height:230px;'><img class = 'decision-stim  fade' src= 'images/15.png'></div>",
            "internal_chunk_id": "0-0.5-9.0-9",
            "time_elapsed": 166534,
            "key_press": -1,
            "trial_index": 0,
            "trial_index_global": 117
        },
        {
            "rt": 469,
            "trial_type": "single-stim",
            "stimulus": "<div class = 'decision-top-background faded' style='background:#98bf21; width:330px;height:230px;'><img class = 'decision-stim' src= 'images/13.png'></div><div class = decision-left style='background:#FF9966; width:330px;height:230px;'><img class = 'decision-stim' src= 'images/11.png'></img></div><div class = decision-right style='background:#FF9966; width:330px;height:230px;'><img class = 'decision-stim' src= 'images/16.png'></img></div>",
            "trial_count": 9,
            "internal_chunk_id": "0-0.5-9",
            "time_elapsed": 167177,
            "key_press": 37,
            "type": "decision_second",
            "trial_index": 0,
            "trial_index_global": 118
        },
        {
            "rt": -1,
            "trial_type": "single-stim",
            "stimulus": "<div class = 'decision-left selected' style='background:#FF9966; width:330px;height:230px;'><img class = 'decision-stim' src= 'images/11.png'></div><div class = 'fade decision-right' style='background:#FF9966; width:330px;height:230px;'><img class = 'decision-stim' src= 'images/16.png'></div>",
            "internal_chunk_id": "0-0.5-9.2-9",
            "time_elapsed": 168180,
            "key_press": -1,
            "trial_index": 0,
            "trial_index_global": 119
        },
        {
            "rt": -1,
            "trial_type": "single-stim",
            "stimulus": "<div class = 'decision-top-background faded' style='background:#FF9966; width:330px;height:230px;'><img class = 'decision-stim' src= 'images/11.png'></div><div style = text-align:center><p class = decision-fb style = 'color:red;font-size:60px'>0</p></div>",
            "trial_count": 9,
            "internal_chunk_id": "0-0.5-9.2-9",
            "time_elapsed": 168681,
            "key_press": -1,
            "type": "decision_FB",
            "trial_index": 0,
            "trial_index_global": 120
        },
        {
            "rt": -1,
            "trial_type": "single-stim",
            "stimulus": "",
            "internal_chunk_id": "0-0.5-9.2-9",
            "time_elapsed": 169682,
            "key_press": -1,
            "trial_index": 0,
            "trial_index_global": 121
        },
        {
            "rt": 588,
            "trial_type": "single-stim",
            "stimulus": "<div class = decision-left style='background:#98bf21; width:330px;height:230px;'><img class = 'decision-stim' src= 'images/13.png'></img></div><div class = decision-right style='background:#98bf21; width:330px;height:230px;'><img class = 'decision-stim' src= 'images/15.png'></img></div>",
            "trial_count": 10,
            "internal_chunk_id": "0-0.5-10.0-10",
            "time_elapsed": 170411,
            "key_press": 39,
            "type": "decision_first",
            "trial_index": 0,
            "trial_index_global": 122
        },
        {
            "rt": -1,
            "trial_type": "single-stim",
            "stimulus": "<div class = 'selected decision-right' style='background:#98bf21; width:330px;height:230px;'><img class = 'decision-stim' src= 'images/15.png'></div><div class = 'decision-left fade' style='background:#98bf21; width:330px;height:230px;'><img class = 'decision-stim  fade' src= 'images/13.png'></div>",
            "internal_chunk_id": "0-0.5-10.0-10",
            "time_elapsed": 171415,
            "key_press": -1,
            "trial_index": 0,
            "trial_index_global": 123
        },
        {
            "rt": 446,
            "trial_type": "single-stim",
            "stimulus": "<div class = 'decision-top-background faded' style='background:#98bf21; width:330px;height:230px;'><img class = 'decision-stim' src= 'images/15.png'></div><div class = decision-left style='background:#C2C2FF; width:330px;height:230px;'><img class = 'decision-stim' src= 'images/14.png'></img></div><div class = decision-right style='background:#C2C2FF; width:330px;height:230px;'><img class = 'decision-stim' src= 'images/12.png'></img></div>",
            "trial_count": 10,
            "internal_chunk_id": "0-0.5-10",
            "time_elapsed": 172040,
            "key_press": 37,
            "type": "decision_second",
            "trial_index": 0,
            "trial_index_global": 124
        },
        {
            "rt": -1,
            "trial_type": "single-stim",
            "stimulus": "<div class = 'decision-left selected' style='background:#C2C2FF; width:330px;height:230px;'><img class = 'decision-stim' src= 'images/14.png'></div><div class = 'fade decision-right' style='background:#C2C2FF; width:330px;height:230px;'><img class = 'decision-stim' src= 'images/12.png'></div>",
            "internal_chunk_id": "0-0.5-10.2-10",
            "time_elapsed": 173043,
            "key_press": -1,
            "trial_index": 0,
            "trial_index_global": 125
        },
        {
            "rt": -1,
            "trial_type": "single-stim",
            "stimulus": "<div class = 'decision-top-background faded' style='background:#C2C2FF; width:330px;height:230px;'><img class = 'decision-stim' src= 'images/14.png'></div><div style = text-align:center><p class = decision-fb style = 'color:red;font-size:60px'>0</p></div>",
            "trial_count": 10,
            "internal_chunk_id": "0-0.5-10.2-10",
            "time_elapsed": 173545,
            "key_press": -1,
            "type": "decision_FB",
            "trial_index": 0,
            "trial_index_global": 126
        },
        {
            "rt": -1,
            "trial_type": "single-stim",
            "stimulus": "",
            "internal_chunk_id": "0-0.5-10.2-10",
            "time_elapsed": 174546,
            "key_press": -1,
            "trial_index": 0,
            "trial_index_global": 127
        },
        {
            "rt": 597,
            "trial_type": "single-stim",
            "stimulus": "<div class = decision-left style='background:#98bf21; width:330px;height:230px;'><img class = 'decision-stim' src= 'images/15.png'></img></div><div class = decision-right style='background:#98bf21; width:330px;height:230px;'><img class = 'decision-stim' src= 'images/13.png'></img></div>",
            "trial_count": 11,
            "internal_chunk_id": "0-0.5-11.0-11",
            "time_elapsed": 175309,
            "key_press": 39,
            "type": "decision_first",
            "trial_index": 0,
            "trial_index_global": 128
        },
        {
            "rt": -1,
            "trial_type": "single-stim",
            "stimulus": "<div class = 'selected decision-right' style='background:#98bf21; width:330px;height:230px;'><img class = 'decision-stim' src= 'images/13.png'></div><div class = 'decision-left fade' style='background:#98bf21; width:330px;height:230px;'><img class = 'decision-stim  fade' src= 'images/15.png'></div>",
            "internal_chunk_id": "0-0.5-11.0-11",
            "time_elapsed": 176324,
            "key_press": -1,
            "trial_index": 0,
            "trial_index_global": 129
        },
        {
            "rt": 384,
            "trial_type": "single-stim",
            "stimulus": "<div class = 'decision-top-background faded' style='background:#98bf21; width:330px;height:230px;'><img class = 'decision-stim' src= 'images/13.png'></div><div class = decision-left style='background:#FF9966; width:330px;height:230px;'><img class = 'decision-stim' src= 'images/16.png'></img></div><div class = decision-right style='background:#FF9966; width:330px;height:230px;'><img class = 'decision-stim' src= 'images/11.png'></img></div>",
            "trial_count": 11,
            "internal_chunk_id": "0-0.5-11",
            "time_elapsed": 176855,
            "key_press": 39,
            "type": "decision_second",
            "trial_index": 0,
            "trial_index_global": 130
        },
        {
            "rt": -1,
            "trial_type": "single-stim",
            "stimulus": "<div class = 'decision-right selected' style='background:#FF9966; width:330px;height:230px;'><img class = 'decision-stim' src= 'images/11.png'></div><div class = 'fade decision-left' style='background:#FF9966; width:330px;height:230px;'><img class = 'decision-stim' src= 'images/16.png'></div>",
            "internal_chunk_id": "0-0.5-11.2-11",
            "time_elapsed": 177859,
            "key_press": -1,
            "trial_index": 0,
            "trial_index_global": 131
        },
        {
            "rt": -1,
            "trial_type": "single-stim",
            "stimulus": "<div class = 'decision-top-background faded' style='background:#FF9966; width:330px;height:230px;'><img class = 'decision-stim' src= 'images/11.png'></div><div><img  class = decision-fb src = 'images/gold_coin.png'></img></div>",
            "trial_count": 11,
            "internal_chunk_id": "0-0.5-11.2-11",
            "time_elapsed": 178361,
            "key_press": -1,
            "type": "decision_FB",
            "trial_index": 0,
            "trial_index_global": 132
        },
        {
            "rt": -1,
            "trial_type": "single-stim",
            "stimulus": "",
            "internal_chunk_id": "0-0.5-11.2-11",
            "time_elapsed": 179363,
            "key_press": -1,
            "trial_index": 0,
            "trial_index_global": 133
        },
        {
            "rt": 755,
            "trial_type": "single-stim",
            "stimulus": "<div class = decision-left style='background:#98bf21; width:330px;height:230px;'><img class = 'decision-stim' src= 'images/15.png'></img></div><div class = decision-right style='background:#98bf21; width:330px;height:230px;'><img class = 'decision-stim' src= 'images/13.png'></img></div>",
            "trial_count": 12,
            "internal_chunk_id": "0-0.5-12.0-12",
            "time_elapsed": 180286,
            "key_press": 37,
            "type": "decision_first",
            "trial_index": 0,
            "trial_index_global": 134
        },
        {
            "rt": -1,
            "trial_type": "single-stim",
            "stimulus": "<div class = 'selected decision-left' style='background:#98bf21; width:330px;height:230px;'><img class = 'decision-stim' src= 'images/15.png'></div><div class = 'decision-right fade' style='background:#98bf21; width:330px;height:230px;'><img class = 'decision-stim  fade' src= 'images/13.png'></div>",
            "internal_chunk_id": "0-0.5-12.0-12",
            "time_elapsed": 181290,
            "key_press": -1,
            "trial_index": 0,
            "trial_index_global": 135
        },
        {
            "rt": 549,
            "trial_type": "single-stim",
            "stimulus": "<div class = 'decision-top-background faded' style='background:#98bf21; width:330px;height:230px;'><img class = 'decision-stim' src= 'images/15.png'></div><div class = decision-left style='background:#C2C2FF; width:330px;height:230px;'><img class = 'decision-stim' src= 'images/14.png'></img></div><div class = decision-right style='background:#C2C2FF; width:330px;height:230px;'><img class = 'decision-stim' src= 'images/12.png'></img></div>",
            "trial_count": 12,
            "internal_chunk_id": "0-0.5-12",
            "time_elapsed": 181996,
            "key_press": 37,
            "type": "decision_second",
            "trial_index": 0,
            "trial_index_global": 136
        },
        {
            "rt": -1,
            "trial_type": "single-stim",
            "stimulus": "<div class = 'decision-left selected' style='background:#C2C2FF; width:330px;height:230px;'><img class = 'decision-stim' src= 'images/14.png'></div><div class = 'fade decision-right' style='background:#C2C2FF; width:330px;height:230px;'><img class = 'decision-stim' src= 'images/12.png'></div>",
            "internal_chunk_id": "0-0.5-12.2-12",
            "time_elapsed": 182999,
            "key_press": -1,
            "trial_index": 0,
            "trial_index_global": 137
        },
        {
            "rt": -1,
            "trial_type": "single-stim",
            "stimulus": "<div class = 'decision-top-background faded' style='background:#C2C2FF; width:330px;height:230px;'><img class = 'decision-stim' src= 'images/14.png'></div><div style = text-align:center><p class = decision-fb style = 'color:red;font-size:60px'>0</p></div>",
            "trial_count": 12,
            "internal_chunk_id": "0-0.5-12.2-12",
            "time_elapsed": 183501,
            "key_press": -1,
            "type": "decision_FB",
            "trial_index": 0,
            "trial_index_global": 138
        },
        {
            "rt": -1,
            "trial_type": "single-stim",
            "stimulus": "",
            "internal_chunk_id": "0-0.5-12.2-12",
            "time_elapsed": 184502,
            "key_press": -1,
            "trial_index": 0,
            "trial_index_global": 139
        },
        {
            "rt": -1,
            "trial_type": "single-stim",
            "stimulus": "<div class = decision-left style='background:#98bf21; width:330px;height:230px;'><img class = 'decision-stim' src= 'images/13.png'></img></div><div class = decision-right style='background:#98bf21; width:330px;height:230px;'><img class = 'decision-stim' src= 'images/15.png'></img></div>",
            "trial_count": 13,
            "internal_chunk_id": "0-0.5-13.0-13",
            "time_elapsed": 186506,
            "key_press": -1,
            "type": "decision_first",
            "trial_index": 0,
            "trial_index_global": 140
        },
        {
            "rt": -1,
            "trial_type": "single-stim",
            "internal_chunk_id": "0-0.5-13.0-13",
            "time_elapsed": 187510,
            "key_press": -1,
            "trial_index": 0,
            "trial_index_global": 141
        },
        {
            "rt": -1,
            "trial_type": "single-stim",
            "stimulus": "<div class = centerbox style = text-align:center><p style = font-size:30px>Please respond faster </p></div>",
            "trial_count": 13,
            "internal_chunk_id": "0-0.5-13",
            "time_elapsed": 189513,
            "key_press": -1,
            "type": "decision_second",
            "trial_index": 0,
            "trial_index_global": 142
        },
        {
            "rt": -1,
            "trial_type": "single-stim",
            "stimulus": "",
            "internal_chunk_id": "0-0.5-13.3-13",
            "time_elapsed": 190513,
            "key_press": -1,
            "trial_index": 0,
            "trial_index_global": 143
        },
        {
            "rt": 729,
            "trial_type": "single-stim",
            "stimulus": "<div class = decision-left style='background:#98bf21; width:330px;height:230px;'><img class = 'decision-stim' src= 'images/15.png'></img></div><div class = decision-right style='background:#98bf21; width:330px;height:230px;'><img class = 'decision-stim' src= 'images/13.png'></img></div>",
            "trial_count": 14,
            "internal_chunk_id": "0-0.5-14.0-14",
            "time_elapsed": 191408,
            "key_press": 39,
            "type": "decision_first",
            "trial_index": 0,
            "trial_index_global": 144
        },
        {
            "rt": -1,
            "trial_type": "single-stim",
            "stimulus": "<div class = 'selected decision-right' style='background:#98bf21; width:330px;height:230px;'><img class = 'decision-stim' src= 'images/13.png'></div><div class = 'decision-left fade' style='background:#98bf21; width:330px;height:230px;'><img class = 'decision-stim  fade' src= 'images/15.png'></div>",
            "internal_chunk_id": "0-0.5-14.0-14",
            "time_elapsed": 192413,
            "key_press": -1,
            "trial_index": 0,
            "trial_index_global": 145
        },
        {
            "rt": 853,
            "trial_type": "single-stim",
            "stimulus": "<div class = 'decision-top-background faded' style='background:#98bf21; width:330px;height:230px;'><img class = 'decision-stim' src= 'images/13.png'></div><div class = decision-left style='background:#C2C2FF; width:330px;height:230px;'><img class = 'decision-stim' src= 'images/14.png'></img></div><div class = decision-right style='background:#C2C2FF; width:330px;height:230px;'><img class = 'decision-stim' src= 'images/12.png'></img></div>",
            "trial_count": 14,
            "internal_chunk_id": "0-0.5-14",
            "time_elapsed": 193407,
            "key_press": 37,
            "type": "decision_second",
            "trial_index": 0,
            "trial_index_global": 146
        },
        {
            "rt": -1,
            "trial_type": "single-stim",
            "stimulus": "<div class = 'decision-left selected' style='background:#C2C2FF; width:330px;height:230px;'><img class = 'decision-stim' src= 'images/14.png'></div><div class = 'fade decision-right' style='background:#C2C2FF; width:330px;height:230px;'><img class = 'decision-stim' src= 'images/12.png'></div>",
            "internal_chunk_id": "0-0.5-14.2-14",
            "time_elapsed": 194412,
            "key_press": -1,
            "trial_index": 0,
            "trial_index_global": 147
        },
        {
            "rt": -1,
            "trial_type": "single-stim",
            "stimulus": "<div class = 'decision-top-background faded' style='background:#C2C2FF; width:330px;height:230px;'><img class = 'decision-stim' src= 'images/14.png'></div><div><img  class = decision-fb src = 'images/gold_coin.png'></img></div>",
            "trial_count": 14,
            "internal_chunk_id": "0-0.5-14.2-14",
            "time_elapsed": 194913,
            "key_press": -1,
            "type": "decision_FB",
            "trial_index": 0,
            "trial_index_global": 148
        },
        {
            "rt": -1,
            "trial_type": "single-stim",
            "stimulus": "",
            "internal_chunk_id": "0-0.5-14.2-14",
            "time_elapsed": 195915,
            "key_press": -1,
            "trial_index": 0,
            "trial_index_global": 149
        },
        {
            "rt": 448,
            "trial_type": "single-stim",
            "stimulus": "<div class = decision-left style='background:#98bf21; width:330px;height:230px;'><img class = 'decision-stim' src= 'images/15.png'></img></div><div class = decision-right style='background:#98bf21; width:330px;height:230px;'><img class = 'decision-stim' src= 'images/13.png'></img></div>",
            "trial_count": 15,
            "internal_chunk_id": "0-0.5-15.0-15",
            "time_elapsed": 196527,
            "key_press": 39,
            "type": "decision_first",
            "trial_index": 0,
            "trial_index_global": 150
        },
        {
            "rt": -1,
            "trial_type": "single-stim",
            "stimulus": "<div class = 'selected decision-right' style='background:#98bf21; width:330px;height:230px;'><img class = 'decision-stim' src= 'images/13.png'></div><div class = 'decision-left fade' style='background:#98bf21; width:330px;height:230px;'><img class = 'decision-stim  fade' src= 'images/15.png'></div>",
            "internal_chunk_id": "0-0.5-15.0-15",
            "time_elapsed": 197531,
            "key_press": -1,
            "trial_index": 0,
            "trial_index_global": 151
        },
        {
            "rt": 484,
            "trial_type": "single-stim",
            "stimulus": "<div class = 'decision-top-background faded' style='background:#98bf21; width:330px;height:230px;'><img class = 'decision-stim' src= 'images/13.png'></div><div class = decision-left style='background:#C2C2FF; width:330px;height:230px;'><img class = 'decision-stim' src= 'images/12.png'></img></div><div class = decision-right style='background:#C2C2FF; width:330px;height:230px;'><img class = 'decision-stim' src= 'images/14.png'></img></div>",
            "trial_count": 15,
            "internal_chunk_id": "0-0.5-15",
            "time_elapsed": 198163,
            "key_press": 39,
            "type": "decision_second",
            "trial_index": 0,
            "trial_index_global": 152
        },
        {
            "rt": -1,
            "trial_type": "single-stim",
            "stimulus": "<div class = 'decision-right selected' style='background:#C2C2FF; width:330px;height:230px;'><img class = 'decision-stim' src= 'images/14.png'></div><div class = 'fade decision-left' style='background:#C2C2FF; width:330px;height:230px;'><img class = 'decision-stim' src= 'images/12.png'></div>",
            "internal_chunk_id": "0-0.5-15.2-15",
            "time_elapsed": 199167,
            "key_press": -1,
            "trial_index": 0,
            "trial_index_global": 153
        },
        {
            "rt": -1,
            "trial_type": "single-stim",
            "stimulus": "<div class = 'decision-top-background faded' style='background:#C2C2FF; width:330px;height:230px;'><img class = 'decision-stim' src= 'images/14.png'></div><div style = text-align:center><p class = decision-fb style = 'color:red;font-size:60px'>0</p></div>",
            "trial_count": 15,
            "internal_chunk_id": "0-0.5-15.2-15",
            "time_elapsed": 199668,
            "key_press": -1,
            "type": "decision_FB",
            "trial_index": 0,
            "trial_index_global": 154
        },
        {
            "rt": -1,
            "trial_type": "single-stim",
            "stimulus": "",
            "internal_chunk_id": "0-0.5-15.2-15",
            "time_elapsed": 200669,
            "key_press": -1,
            "trial_index": 0,
            "trial_index_global": 155
        },
        {
            "rt": 476,
            "trial_type": "single-stim",
            "stimulus": "<div class = decision-left style='background:#98bf21; width:330px;height:230px;'><img class = 'decision-stim' src= 'images/13.png'></img></div><div class = decision-right style='background:#98bf21; width:330px;height:230px;'><img class = 'decision-stim' src= 'images/15.png'></img></div>",
            "trial_count": 16,
            "internal_chunk_id": "0-0.5-16.0-16",
            "time_elapsed": 201297,
            "key_press": 37,
            "type": "decision_first",
            "trial_index": 0,
            "trial_index_global": 156
        },
        {
            "rt": -1,
            "trial_type": "single-stim",
            "stimulus": "<div class = 'selected decision-left' style='background:#98bf21; width:330px;height:230px;'><img class = 'decision-stim' src= 'images/13.png'></div><div class = 'decision-right fade' style='background:#98bf21; width:330px;height:230px;'><img class = 'decision-stim  fade' src= 'images/15.png'></div>",
            "internal_chunk_id": "0-0.5-16.0-16",
            "time_elapsed": 202302,
            "key_press": -1,
            "trial_index": 0,
            "trial_index_global": 157
        },
        {
            "rt": 646,
            "trial_type": "single-stim",
            "stimulus": "<div class = 'decision-top-background faded' style='background:#98bf21; width:330px;height:230px;'><img class = 'decision-stim' src= 'images/13.png'></div><div class = decision-left style='background:#C2C2FF; width:330px;height:230px;'><img class = 'decision-stim' src= 'images/12.png'></img></div><div class = decision-right style='background:#C2C2FF; width:330px;height:230px;'><img class = 'decision-stim' src= 'images/14.png'></img></div>",
            "trial_count": 16,
            "internal_chunk_id": "0-0.5-16",
            "time_elapsed": 203081,
            "key_press": 39,
            "type": "decision_second",
            "trial_index": 0,
            "trial_index_global": 158
        },
        {
            "rt": -1,
            "trial_type": "single-stim",
            "stimulus": "<div class = 'decision-right selected' style='background:#C2C2FF; width:330px;height:230px;'><img class = 'decision-stim' src= 'images/14.png'></div><div class = 'fade decision-left' style='background:#C2C2FF; width:330px;height:230px;'><img class = 'decision-stim' src= 'images/12.png'></div>",
            "internal_chunk_id": "0-0.5-16.2-16",
            "time_elapsed": 204085,
            "key_press": -1,
            "trial_index": 0,
            "trial_index_global": 159
        },
        {
            "rt": -1,
            "trial_type": "single-stim",
            "stimulus": "<div class = 'decision-top-background faded' style='background:#C2C2FF; width:330px;height:230px;'><img class = 'decision-stim' src= 'images/14.png'></div><div style = text-align:center><p class = decision-fb style = 'color:red;font-size:60px'>0</p></div>",
            "trial_count": 16,
            "internal_chunk_id": "0-0.5-16.2-16",
            "time_elapsed": 204587,
            "key_press": -1,
            "type": "decision_FB",
            "trial_index": 0,
            "trial_index_global": 160
        },
        {
            "rt": -1,
            "trial_type": "single-stim",
            "stimulus": "",
            "internal_chunk_id": "0-0.5-16.2-16",
            "time_elapsed": 205588,
            "key_press": -1,
            "trial_index": 0,
            "trial_index_global": 161
        },
        {
            "rt": 530,
            "trial_type": "single-stim",
            "stimulus": "<div class = decision-left style='background:#98bf21; width:330px;height:230px;'><img class = 'decision-stim' src= 'images/13.png'></img></div><div class = decision-right style='background:#98bf21; width:330px;height:230px;'><img class = 'decision-stim' src= 'images/15.png'></img></div>",
            "trial_count": 17,
            "internal_chunk_id": "0-0.5-17.0-17",
