{
    "AutoApprovalTime": "2015-03-12T01:29:40Z",
    "AssignmentId": "3UOUJI6MTDEY4GH2K6N6F6HP4MEUX3",
    "WorkerId": "A3LDI9J4FZ6S0Q",
    "AcceptTime": "2015-03-10T01:03:13Z",
    "HITId": "363A7XIFV4MJYY0GOJ0W20CPME0VAH",
    "Assignment": "",
    "answer": [
        {
            "rt": 40445,
            "trial_type": "text",
            "internal_chunk_id": "0-0",
            "time_elapsed": 40627,
            "key_press": 13,
            "trial_index": 0,
            "trial_index_global": 0
        },
        {
            "rt": -1,
            "trial_type": "single-stim",
            "stimulus": "",
            "internal_chunk_id": "0-0",
            "time_elapsed": 41643,
            "key_press": -1,
            "global_params": {
                "second_stage_stim": {
                    "stimulus": [
                        "<div class = decision-left style='background:#F1B8D4; width:330px;height:230px;'><img class = 'decision-stim' src= 'images/84.png'></img></div><div class = decision-right style='background:#F1B8D4; width:330px;height:230px;'><img class = 'decision-stim' src= 'images/80.png'></img></div>",
                        "<div class = decision-left style='background:#F1B8D4; width:330px;height:230px;'><img class = 'decision-stim' src= 'images/80.png'></img></div><div class = decision-right style='background:#F1B8D4; width:330px;height:230px;'><img class = 'decision-stim' src= 'images/84.png'></img></div>",
                        "<div class = decision-left style='background:#E0C2FF; width:330px;height:230px;'><img class = 'decision-stim' src= 'images/81.png'></img></div><div class = decision-right style='background:#E0C2FF; width:330px;height:230px;'><img class = 'decision-stim' src= 'images/85.png'></img></div>",
                        "<div class = decision-left style='background:#E0C2FF; width:330px;height:230px;'><img class = 'decision-stim' src= 'images/85.png'></img></div><div class = decision-right style='background:#E0C2FF; width:330px;height:230px;'><img class = 'decision-stim' src= 'images/81.png'></img></div>"
                    ],
                    "id": [
                        [
                            2,
                            3
                        ],
                        [
                            3,
                            2
                        ],
                        [
                            4,
                            5
                        ],
                        [
                            5,
                            4
                        ]
                    ]
                },
                "stims": [
                    "images/82.png",
                    "images/83.png",
                    "images/84.png",
                    "images/80.png",
                    "images/81.png",
                    "images/85.png"
                ],
                "fs_stim": [
                    {
                        "stimulus": "<div class = decision-left style='background:#CCFF99; width:330px;height:230px;'><img class = 'decision-stim' src= 'images/82.png'></img></div><div class = decision-right style='background:#CCFF99; width:330px;height:230px;'><img class = 'decision-stim' src= 'images/83.png'></img></div>",
                        "id": [
                            0,
                            1
                        ]
                    },
                    {
                        "stimulus": "<div class = decision-left style='background:#CCFF99; width:330px;height:230px;'><img class = 'decision-stim' src= 'images/83.png'></img></div><div class = decision-right style='background:#CCFF99; width:330px;height:230px;'><img class = 'decision-stim' src= 'images/82.png'></img></div>",
                        "id": [
                            1,
                            0
                        ]
                    }
                ],
                "condition": "practice",
                "actions": [
                    37,
                    39
                ]
            },
            "type": "decision_global",
            "trial_index": 0,
            "trial_index_global": 1
        },
        {
            "rt": 1227,
            "trial_type": "single-stim",
            "stimulus": "<div class = decision-left style='background:#CCFF99; width:330px;height:230px;'><img class = 'decision-stim' src= 'images/83.png'></img></div><div class = decision-right style='background:#CCFF99; width:330px;height:230px;'><img class = 'decision-stim' src= 'images/82.png'></img></div>",
            "trial_count": 0,
            "internal_chunk_id": "0-0.2-0.0-0",
            "time_elapsed": 43010,
            "key_press": 39,
            "type": "decision_first",
            "trial_index": 0,
            "trial_index_global": 2
        },
        {
            "rt": -1,
            "trial_type": "single-stim",
            "stimulus": "<div class = 'selected decision-right' style='background:#CCFF99; width:330px;height:230px;'><img class = 'decision-stim' src= 'images/82.png'></div><div class = 'decision-left fade' style='background:#CCFF99; width:330px;height:230px;'><img class = 'decision-stim  fade' src= 'images/83.png'></div>",
            "internal_chunk_id": "0-0.2-0.0-0",
            "time_elapsed": 44011,
            "key_press": -1,
            "trial_index": 0,
            "trial_index_global": 3
        },
        {
            "rt": -1,
            "trial_type": "single-stim",
            "stimulus": "<div class = 'decision-top-background faded' style='background:#CCFF99; width:330px;height:230px;'><img class = 'decision-stim' src= 'images/82.png'></div><div class = decision-left style='background:#F1B8D4; width:330px;height:230px;'><img class = 'decision-stim' src= 'images/84.png'></img></div><div class = decision-right style='background:#F1B8D4; width:330px;height:230px;'><img class = 'decision-stim' src= 'images/80.png'></img></div>",
            "trial_count": 0,
            "internal_chunk_id": "0-0.2-0",
            "time_elapsed": 46021,
            "key_press": -1,
            "type": "decision_second",
            "trial_index": 0,
            "trial_index_global": 4
        },
        {
            "rt": -1,
            "trial_type": "single-stim",
            "internal_chunk_id": "0-0.2-0.2-0",
            "time_elapsed": 47029,
            "key_press": -1,
            "trial_index": 0,
            "trial_index_global": 5
        },
        {
            "rt": -1,
            "trial_type": "single-stim",
            "stimulus": "<div class = centerbox style = text-align:center><p style = font-size:30px>Please respond faster </p></div>",
            "trial_count": 0,
            "internal_chunk_id": "0-0.2-0.2-0",
            "time_elapsed": 47535,
            "key_press": -1,
            "type": "decision_FB",
            "trial_index": 0,
            "trial_index_global": 6
        },
        {
            "rt": -1,
            "trial_type": "single-stim",
            "stimulus": "",
            "internal_chunk_id": "0-0.2-0.2-0",
            "time_elapsed": 48536,
            "key_press": -1,
            "trial_index": 0,
            "trial_index_global": 7
        },
        {
            "rt": 437,
            "trial_type": "single-stim",
            "stimulus": "<div class = decision-left style='background:#CCFF99; width:330px;height:230px;'><img class = 'decision-stim' src= 'images/83.png'></img></div><div class = decision-right style='background:#CCFF99; width:330px;height:230px;'><img class = 'decision-stim' src= 'images/82.png'></img></div>",
            "trial_count": 1,
            "internal_chunk_id": "0-0.2-1.0-1",
            "time_elapsed": 49113,
            "key_press": 39,
            "type": "decision_first",
            "trial_index": 0,
            "trial_index_global": 8
        },
        {
            "rt": -1,
            "trial_type": "single-stim",
            "stimulus": "<div class = 'selected decision-right' style='background:#CCFF99; width:330px;height:230px;'><img class = 'decision-stim' src= 'images/82.png'></div><div class = 'decision-left fade' style='background:#CCFF99; width:330px;height:230px;'><img class = 'decision-stim  fade' src= 'images/83.png'></div>",
            "internal_chunk_id": "0-0.2-1.0-1",
            "time_elapsed": 50114,
            "key_press": -1,
            "trial_index": 0,
            "trial_index_global": 9
        },
        {
            "rt": 448,
            "trial_type": "single-stim",
            "stimulus": "<div class = 'decision-top-background faded' style='background:#CCFF99; width:330px;height:230px;'><img class = 'decision-stim' src= 'images/82.png'></div><div class = decision-left style='background:#F1B8D4; width:330px;height:230px;'><img class = 'decision-stim' src= 'images/84.png'></img></div><div class = decision-right style='background:#F1B8D4; width:330px;height:230px;'><img class = 'decision-stim' src= 'images/80.png'></img></div>",
            "trial_count": 1,
            "internal_chunk_id": "0-0.2-1",
            "time_elapsed": 50733,
            "key_press": 37,
            "type": "decision_second",
            "trial_index": 0,
            "trial_index_global": 10
        },
        {
            "rt": -1,
            "trial_type": "single-stim",
            "stimulus": "<div class = 'decision-left selected' style='background:#F1B8D4; width:330px;height:230px;'><img class = 'decision-stim' src= 'images/84.png'></div><div class = 'fade decision-right' style='background:#F1B8D4; width:330px;height:230px;'><img class = 'decision-stim' src= 'images/80.png'></div>",
            "internal_chunk_id": "0-0.2-1.2-1",
            "time_elapsed": 51733,
            "key_press": -1,
            "trial_index": 0,
            "trial_index_global": 11
        },
        {
            "rt": -1,
            "trial_type": "single-stim",
            "stimulus": "<div class = 'decision-top-background faded' style='background:#F1B8D4; width:330px;height:230px;'><img class = 'decision-stim' src= 'images/84.png'></div><div><img  class = decision-fb src = 'images/gold_coin.png'></img></div>",
            "trial_count": 1,
            "internal_chunk_id": "0-0.2-1.2-1",
            "time_elapsed": 52242,
            "key_press": -1,
            "type": "decision_FB",
            "trial_index": 0,
            "trial_index_global": 12
        },
        {
            "rt": 0,
            "trial_type": "single-stim",
            "stimulus": "",
            "internal_chunk_id": "0-0.2-1.2-1",
            "time_elapsed": 53252,
            "key_press": 39,
            "trial_index": 0,
            "trial_index_global": 13
        },
        {
            "rt": 509,
            "trial_type": "single-stim",
            "stimulus": "<div class = decision-left style='background:#CCFF99; width:330px;height:230px;'><img class = 'decision-stim' src= 'images/82.png'></img></div><div class = decision-right style='background:#CCFF99; width:330px;height:230px;'><img class = 'decision-stim' src= 'images/83.png'></img></div>",
            "trial_count": 2,
            "internal_chunk_id": "0-0.2-2.0-2",
            "time_elapsed": 53861,
            "key_press": 37,
            "type": "decision_first",
            "trial_index": 0,
            "trial_index_global": 14
        },
        {
            "rt": -1,
            "trial_type": "single-stim",
            "stimulus": "<div class = 'selected decision-left' style='background:#CCFF99; width:330px;height:230px;'><img class = 'decision-stim' src= 'images/82.png'></div><div class = 'decision-right fade' style='background:#CCFF99; width:330px;height:230px;'><img class = 'decision-stim  fade' src= 'images/83.png'></div>",
            "internal_chunk_id": "0-0.2-2.0-2",
            "time_elapsed": 54862,
            "key_press": -1,
            "trial_index": 0,
            "trial_index_global": 15
        },
        {
            "rt": 540,
            "trial_type": "single-stim",
            "stimulus": "<div class = 'decision-top-background faded' style='background:#CCFF99; width:330px;height:230px;'><img class = 'decision-stim' src= 'images/82.png'></div><div class = decision-left style='background:#F1B8D4; width:330px;height:230px;'><img class = 'decision-stim' src= 'images/84.png'></img></div><div class = decision-right style='background:#F1B8D4; width:330px;height:230px;'><img class = 'decision-stim' src= 'images/80.png'></img></div>",
            "trial_count": 2,
            "internal_chunk_id": "0-0.2-2",
            "time_elapsed": 55605,
            "key_press": 37,
            "type": "decision_second",
            "trial_index": 0,
            "trial_index_global": 16
        },
        {
            "rt": -1,
            "trial_type": "single-stim",
            "stimulus": "<div class = 'decision-left selected' style='background:#F1B8D4; width:330px;height:230px;'><img class = 'decision-stim' src= 'images/84.png'></div><div class = 'fade decision-right' style='background:#F1B8D4; width:330px;height:230px;'><img class = 'decision-stim' src= 'images/80.png'></div>",
            "internal_chunk_id": "0-0.2-2.2-2",
            "time_elapsed": 56606,
            "key_press": -1,
            "trial_index": 0,
            "trial_index_global": 17
        },
        {
            "rt": -1,
            "trial_type": "single-stim",
            "stimulus": "<div class = 'decision-top-background faded' style='background:#F1B8D4; width:330px;height:230px;'><img class = 'decision-stim' src= 'images/84.png'></div><div><img  class = decision-fb src = 'images/gold_coin.png'></img></div>",
            "trial_count": 2,
            "internal_chunk_id": "0-0.2-2.2-2",
            "time_elapsed": 57113,
            "key_press": -1,
            "type": "decision_FB",
            "trial_index": 0,
            "trial_index_global": 18
        },
        {
            "rt": -1,
            "trial_type": "single-stim",
            "stimulus": "",
            "internal_chunk_id": "0-0.2-2.2-2",
            "time_elapsed": 58118,
            "key_press": -1,
            "trial_index": 0,
            "trial_index_global": 19
        },
        {
            "rt": 666,
            "trial_type": "single-stim",
            "stimulus": "<div class = decision-left style='background:#CCFF99; width:330px;height:230px;'><img class = 'decision-stim' src= 'images/83.png'></img></div><div class = decision-right style='background:#CCFF99; width:330px;height:230px;'><img class = 'decision-stim' src= 'images/82.png'></img></div>",
            "trial_count": 3,
            "internal_chunk_id": "0-0.2-3.0-3",
            "time_elapsed": 58894,
            "key_press": 39,
            "type": "decision_first",
            "trial_index": 0,
            "trial_index_global": 20
        },
        {
            "rt": -1,
            "trial_type": "single-stim",
            "stimulus": "<div class = 'selected decision-right' style='background:#CCFF99; width:330px;height:230px;'><img class = 'decision-stim' src= 'images/82.png'></div><div class = 'decision-left fade' style='background:#CCFF99; width:330px;height:230px;'><img class = 'decision-stim  fade' src= 'images/83.png'></div>",
            "internal_chunk_id": "0-0.2-3.0-3",
            "time_elapsed": 59895,
            "key_press": -1,
            "trial_index": 0,
            "trial_index_global": 21
        },
        {
            "rt": 509,
            "trial_type": "single-stim",
            "stimulus": "<div class = 'decision-top-background faded' style='background:#CCFF99; width:330px;height:230px;'><img class = 'decision-stim' src= 'images/82.png'></div><div class = decision-left style='background:#E0C2FF; width:330px;height:230px;'><img class = 'decision-stim' src= 'images/81.png'></img></div><div class = decision-right style='background:#E0C2FF; width:330px;height:230px;'><img class = 'decision-stim' src= 'images/85.png'></img></div>",
            "trial_count": 3,
            "internal_chunk_id": "0-0.2-3",
            "time_elapsed": 60525,
            "key_press": 37,
            "type": "decision_second",
            "trial_index": 0,
            "trial_index_global": 22
        },
        {
            "rt": -1,
            "trial_type": "single-stim",
            "stimulus": "<div class = 'decision-left selected' style='background:#E0C2FF; width:330px;height:230px;'><img class = 'decision-stim' src= 'images/81.png'></div><div class = 'fade decision-right' style='background:#E0C2FF; width:330px;height:230px;'><img class = 'decision-stim' src= 'images/85.png'></div>",
            "internal_chunk_id": "0-0.2-3.2-3",
            "time_elapsed": 61525,
            "key_press": -1,
            "trial_index": 0,
            "trial_index_global": 23
        },
        {
            "rt": -1,
            "trial_type": "single-stim",
            "stimulus": "<div class = 'decision-top-background faded' style='background:#E0C2FF; width:330px;height:230px;'><img class = 'decision-stim' src= 'images/81.png'></div><div><img  class = decision-fb src = 'images/gold_coin.png'></img></div>",
            "trial_count": 3,
            "internal_chunk_id": "0-0.2-3.2-3",
            "time_elapsed": 62028,
            "key_press": -1,
            "type": "decision_FB",
            "trial_index": 0,
            "trial_index_global": 24
        },
        {
            "rt": -1,
            "trial_type": "single-stim",
            "stimulus": "",
            "internal_chunk_id": "0-0.2-3.2-3",
            "time_elapsed": 63034,
            "key_press": -1,
            "trial_index": 0,
            "trial_index_global": 25
        },
        {
            "rt": 358,
            "trial_type": "single-stim",
            "stimulus": "<div class = decision-left style='background:#CCFF99; width:330px;height:230px;'><img class = 'decision-stim' src= 'images/82.png'></img></div><div class = decision-right style='background:#CCFF99; width:330px;height:230px;'><img class = 'decision-stim' src= 'images/83.png'></img></div>",
            "trial_count": 4,
            "internal_chunk_id": "0-0.2-4.0-4",
            "time_elapsed": 63522,
            "key_press": 37,
            "type": "decision_first",
            "trial_index": 0,
            "trial_index_global": 26
        },
        {
            "rt": -1,
            "trial_type": "single-stim",
            "stimulus": "<div class = 'selected decision-left' style='background:#CCFF99; width:330px;height:230px;'><img class = 'decision-stim' src= 'images/82.png'></div><div class = 'decision-right fade' style='background:#CCFF99; width:330px;height:230px;'><img class = 'decision-stim  fade' src= 'images/83.png'></div>",
            "internal_chunk_id": "0-0.2-4.0-4",
            "time_elapsed": 64533,
            "key_press": -1,
            "trial_index": 0,
            "trial_index_global": 27
        },
        {
            "rt": 524,
            "trial_type": "single-stim",
            "stimulus": "<div class = 'decision-top-background faded' style='background:#CCFF99; width:330px;height:230px;'><img class = 'decision-stim' src= 'images/82.png'></div><div class = decision-left style='background:#E0C2FF; width:330px;height:230px;'><img class = 'decision-stim' src= 'images/81.png'></img></div><div class = decision-right style='background:#E0C2FF; width:330px;height:230px;'><img class = 'decision-stim' src= 'images/85.png'></img></div>",
            "trial_count": 4,
            "internal_chunk_id": "0-0.2-4",
            "time_elapsed": 65188,
            "key_press": 39,
            "type": "decision_second",
            "trial_index": 0,
            "trial_index_global": 28
        },
        {
            "rt": -1,
            "trial_type": "single-stim",
            "stimulus": "<div class = 'decision-right selected' style='background:#E0C2FF; width:330px;height:230px;'><img class = 'decision-stim' src= 'images/85.png'></div><div class = 'fade decision-left' style='background:#E0C2FF; width:330px;height:230px;'><img class = 'decision-stim' src= 'images/81.png'></div>",
            "internal_chunk_id": "0-0.2-4.2-4",
            "time_elapsed": 66189,
            "key_press": -1,
            "trial_index": 0,
            "trial_index_global": 29
        },
        {
            "rt": -1,
            "trial_type": "single-stim",
            "stimulus": "<div class = 'decision-top-background faded' style='background:#E0C2FF; width:330px;height:230px;'><img class = 'decision-stim' src= 'images/85.png'></div><div style = text-align:center><p class = decision-fb style = 'color:red;font-size:60px'>0</p></div>",
            "trial_count": 4,
            "internal_chunk_id": "0-0.2-4.2-4",
            "time_elapsed": 66695,
            "key_press": -1,
            "type": "decision_FB",
            "trial_index": 0,
            "trial_index_global": 30
        },
        {
            "rt": -1,
            "trial_type": "single-stim",
            "stimulus": "",
            "internal_chunk_id": "0-0.2-4.2-4",
            "time_elapsed": 67698,
            "key_press": -1,
            "trial_index": 0,
            "trial_index_global": 31
        },
        {
            "rt": 391,
            "trial_type": "single-stim",
            "stimulus": "<div class = decision-left style='background:#CCFF99; width:330px;height:230px;'><img class = 'decision-stim' src= 'images/82.png'></img></div><div class = decision-right style='background:#CCFF99; width:330px;height:230px;'><img class = 'decision-stim' src= 'images/83.png'></img></div>",
            "trial_count": 5,
            "internal_chunk_id": "0-0.2-5.0-5",
            "time_elapsed": 68240,
            "key_press": 37,
            "type": "decision_first",
            "trial_index": 0,
            "trial_index_global": 32
        },
        {
            "rt": -1,
            "trial_type": "single-stim",
            "stimulus": "<div class = 'selected decision-left' style='background:#CCFF99; width:330px;height:230px;'><img class = 'decision-stim' src= 'images/82.png'></div><div class = 'decision-right fade' style='background:#CCFF99; width:330px;height:230px;'><img class = 'decision-stim  fade' src= 'images/83.png'></div>",
            "internal_chunk_id": "0-0.2-5.0-5",
            "time_elapsed": 69241,
            "key_press": -1,
            "trial_index": 0,
            "trial_index_global": 33
        },
        {
            "rt": 424,
            "trial_type": "single-stim",
            "stimulus": "<div class = 'decision-top-background faded' style='background:#CCFF99; width:330px;height:230px;'><img class = 'decision-stim' src= 'images/82.png'></div><div class = decision-left style='background:#F1B8D4; width:330px;height:230px;'><img class = 'decision-stim' src= 'images/84.png'></img></div><div class = decision-right style='background:#F1B8D4; width:330px;height:230px;'><img class = 'decision-stim' src= 'images/80.png'></img></div>",
            "trial_count": 5,
            "internal_chunk_id": "0-0.2-5",
            "time_elapsed": 69827,
            "key_press": 37,
            "type": "decision_second",
            "trial_index": 0,
            "trial_index_global": 34
        },
        {
            "rt": -1,
            "trial_type": "single-stim",
            "stimulus": "<div class = 'decision-left selected' style='background:#F1B8D4; width:330px;height:230px;'><img class = 'decision-stim' src= 'images/84.png'></div><div class = 'fade decision-right' style='background:#F1B8D4; width:330px;height:230px;'><img class = 'decision-stim' src= 'images/80.png'></div>",
            "internal_chunk_id": "0-0.2-5.2-5",
            "time_elapsed": 70827,
            "key_press": -1,
            "trial_index": 0,
            "trial_index_global": 35
        },
        {
            "rt": -1,
            "trial_type": "single-stim",
            "stimulus": "<div class = 'decision-top-background faded' style='background:#F1B8D4; width:330px;height:230px;'><img class = 'decision-stim' src= 'images/84.png'></div><div><img  class = decision-fb src = 'images/gold_coin.png'></img></div>",
            "trial_count": 5,
            "internal_chunk_id": "0-0.2-5.2-5",
            "time_elapsed": 71328,
            "key_press": -1,
            "type": "decision_FB",
            "trial_index": 0,
            "trial_index_global": 36
        },
        {
            "rt": -1,
            "trial_type": "single-stim",
            "stimulus": "",
            "internal_chunk_id": "0-0.2-5.2-5",
            "time_elapsed": 72329,
            "key_press": -1,
            "trial_index": 0,
            "trial_index_global": 37
        },
        {
            "rt": 622,
            "trial_type": "single-stim",
            "stimulus": "<div class = decision-left style='background:#CCFF99; width:330px;height:230px;'><img class = 'decision-stim' src= 'images/83.png'></img></div><div class = decision-right style='background:#CCFF99; width:330px;height:230px;'><img class = 'decision-stim' src= 'images/82.png'></img></div>",
            "trial_count": 6,
            "internal_chunk_id": "0-0.2-6.0-6",
            "time_elapsed": 73091,
            "key_press": 39,
            "type": "decision_first",
            "trial_index": 0,
            "trial_index_global": 38
        },
        {
            "rt": -1,
            "trial_type": "single-stim",
            "stimulus": "<div class = 'selected decision-right' style='background:#CCFF99; width:330px;height:230px;'><img class = 'decision-stim' src= 'images/82.png'></div><div class = 'decision-left fade' style='background:#CCFF99; width:330px;height:230px;'><img class = 'decision-stim  fade' src= 'images/83.png'></div>",
            "internal_chunk_id": "0-0.2-6.0-6",
            "time_elapsed": 74091,
            "key_press": -1,
            "trial_index": 0,
            "trial_index_global": 39
        },
        {
            "rt": 513,
            "trial_type": "single-stim",
            "stimulus": "<div class = 'decision-top-background faded' style='background:#CCFF99; width:330px;height:230px;'><img class = 'decision-stim' src= 'images/82.png'></div><div class = decision-left style='background:#F1B8D4; width:330px;height:230px;'><img class = 'decision-stim' src= 'images/84.png'></img></div><div class = decision-right style='background:#F1B8D4; width:330px;height:230px;'><img class = 'decision-stim' src= 'images/80.png'></img></div>",
            "trial_count": 6,
            "internal_chunk_id": "0-0.2-6",
            "time_elapsed": 74755,
            "key_press": 37,
            "type": "decision_second",
            "trial_index": 0,
            "trial_index_global": 40
        },
        {
            "rt": -1,
            "trial_type": "single-stim",
            "stimulus": "<div class = 'decision-left selected' style='background:#F1B8D4; width:330px;height:230px;'><img class = 'decision-stim' src= 'images/84.png'></div><div class = 'fade decision-right' style='background:#F1B8D4; width:330px;height:230px;'><img class = 'decision-stim' src= 'images/80.png'></div>",
            "internal_chunk_id": "0-0.2-6.2-6",
            "time_elapsed": 75755,
            "key_press": -1,
            "trial_index": 0,
            "trial_index_global": 41
        },
        {
            "rt": -1,
            "trial_type": "single-stim",
            "stimulus": "<div class = 'decision-top-background faded' style='background:#F1B8D4; width:330px;height:230px;'><img class = 'decision-stim' src= 'images/84.png'></div><div><img  class = decision-fb src = 'images/gold_coin.png'></img></div>",
            "trial_count": 6,
            "internal_chunk_id": "0-0.2-6.2-6",
            "time_elapsed": 76263,
            "key_press": -1,
            "type": "decision_FB",
            "trial_index": 0,
            "trial_index_global": 42
        },
        {
            "rt": -1,
            "trial_type": "single-stim",
            "stimulus": "",
            "internal_chunk_id": "0-0.2-6.2-6",
            "time_elapsed": 77271,
            "key_press": -1,
            "trial_index": 0,
            "trial_index_global": 43
        },
        {
            "rt": 480,
            "trial_type": "single-stim",
            "stimulus": "<div class = decision-left style='background:#CCFF99; width:330px;height:230px;'><img class = 'decision-stim' src= 'images/82.png'></img></div><div class = decision-right style='background:#CCFF99; width:330px;height:230px;'><img class = 'decision-stim' src= 'images/83.png'></img></div>",
            "trial_count": 7,
            "internal_chunk_id": "0-0.2-7.0-7",
            "time_elapsed": 77861,
            "key_press": 39,
            "type": "decision_first",
            "trial_index": 0,
            "trial_index_global": 44
        },
        {
            "rt": -1,
            "trial_type": "single-stim",
            "stimulus": "<div class = 'selected decision-right' style='background:#CCFF99; width:330px;height:230px;'><img class = 'decision-stim' src= 'images/83.png'></div><div class = 'decision-left fade' style='background:#CCFF99; width:330px;height:230px;'><img class = 'decision-stim  fade' src= 'images/82.png'></div>",
            "internal_chunk_id": "0-0.2-7.0-7",
            "time_elapsed": 78872,
            "key_press": -1,
            "trial_index": 0,
            "trial_index_global": 45
        },
        {
            "rt": 465,
            "trial_type": "single-stim",
            "stimulus": "<div class = 'decision-top-background faded' style='background:#CCFF99; width:330px;height:230px;'><img class = 'decision-stim' src= 'images/83.png'></div><div class = decision-left style='background:#F1B8D4; width:330px;height:230px;'><img class = 'decision-stim' src= 'images/84.png'></img></div><div class = decision-right style='background:#F1B8D4; width:330px;height:230px;'><img class = 'decision-stim' src= 'images/80.png'></img></div>",
            "trial_count": 7,
            "internal_chunk_id": "0-0.2-7",
            "time_elapsed": 79458,
            "key_press": 39,
            "type": "decision_second",
            "trial_index": 0,
            "trial_index_global": 46
        },
        {
            "rt": -1,
            "trial_type": "single-stim",
            "stimulus": "<div class = 'decision-right selected' style='background:#F1B8D4; width:330px;height:230px;'><img class = 'decision-stim' src= 'images/80.png'></div><div class = 'fade decision-left' style='background:#F1B8D4; width:330px;height:230px;'><img class = 'decision-stim' src= 'images/84.png'></div>",
            "internal_chunk_id": "0-0.2-7.2-7",
            "time_elapsed": 80468,
            "key_press": -1,
            "trial_index": 0,
            "trial_index_global": 47
        },
        {
            "rt": -1,
            "trial_type": "single-stim",
            "stimulus": "<div class = 'decision-top-background faded' style='background:#F1B8D4; width:330px;height:230px;'><img class = 'decision-stim' src= 'images/80.png'></div><div style = text-align:center><p class = decision-fb style = 'color:red;font-size:60px'>0</p></div>",
            "trial_count": 7,
            "internal_chunk_id": "0-0.2-7.2-7",
            "time_elapsed": 80971,
            "key_press": -1,
            "type": "decision_FB",
            "trial_index": 0,
            "trial_index_global": 48
        },
        {
            "rt": -1,
            "trial_type": "single-stim",
            "stimulus": "",
            "internal_chunk_id": "0-0.2-7.2-7",
            "time_elapsed": 81978,
            "key_press": -1,
            "trial_index": 0,
            "trial_index_global": 49
        },
        {
            "rt": 498,
            "trial_type": "single-stim",
            "stimulus": "<div class = decision-left style='background:#CCFF99; width:330px;height:230px;'><img class = 'decision-stim' src= 'images/82.png'></img></div><div class = decision-right style='background:#CCFF99; width:330px;height:230px;'><img class = 'decision-stim' src= 'images/83.png'></img></div>",
            "trial_count": 8,
            "internal_chunk_id": "0-0.2-8.0-8",
            "time_elapsed": 82626,
            "key_press": 37,
            "type": "decision_first",
            "trial_index": 0,
            "trial_index_global": 50
        },
        {
            "rt": -1,
            "trial_type": "single-stim",
            "stimulus": "<div class = 'selected decision-left' style='background:#CCFF99; width:330px;height:230px;'><img class = 'decision-stim' src= 'images/82.png'></div><div class = 'decision-right fade' style='background:#CCFF99; width:330px;height:230px;'><img class = 'decision-stim  fade' src= 'images/83.png'></div>",
            "internal_chunk_id": "0-0.2-8.0-8",
            "time_elapsed": 83627,
            "key_press": -1,
            "trial_index": 0,
            "trial_index_global": 51
        },
        {
            "rt": 502,
            "trial_type": "single-stim",
            "stimulus": "<div class = 'decision-top-background faded' style='background:#CCFF99; width:330px;height:230px;'><img class = 'decision-stim' src= 'images/82.png'></div><div class = decision-left style='background:#F1B8D4; width:330px;height:230px;'><img class = 'decision-stim' src= 'images/84.png'></img></div><div class = decision-right style='background:#F1B8D4; width:330px;height:230px;'><img class = 'decision-stim' src= 'images/80.png'></img></div>",
            "trial_count": 8,
            "internal_chunk_id": "0-0.2-8",
            "time_elapsed": 84270,
            "key_press": 37,
            "type": "decision_second",
            "trial_index": 0,
            "trial_index_global": 52
        },
        {
            "rt": -1,
            "trial_type": "single-stim",
            "stimulus": "<div class = 'decision-left selected' style='background:#F1B8D4; width:330px;height:230px;'><img class = 'decision-stim' src= 'images/84.png'></div><div class = 'fade decision-right' style='background:#F1B8D4; width:330px;height:230px;'><img class = 'decision-stim' src= 'images/80.png'></div>",
            "internal_chunk_id": "0-0.2-8.2-8",
            "time_elapsed": 85270,
            "key_press": -1,
            "trial_index": 0,
            "trial_index_global": 53
        },
        {
            "rt": -1,
            "trial_type": "single-stim",
            "stimulus": "<div class = 'decision-top-background faded' style='background:#F1B8D4; width:330px;height:230px;'><img class = 'decision-stim' src= 'images/84.png'></div><div style = text-align:center><p class = decision-fb style = 'color:red;font-size:60px'>0</p></div>",
            "trial_count": 8,
            "internal_chunk_id": "0-0.2-8.2-8",
            "time_elapsed": 85774,
            "key_press": -1,
            "type": "decision_FB",
            "trial_index": 0,
            "trial_index_global": 54
        },
        {
            "rt": -1,
            "trial_type": "single-stim",
            "stimulus": "",
            "internal_chunk_id": "0-0.2-8.2-8",
            "time_elapsed": 86782,
            "key_press": -1,
            "trial_index": 0,
            "trial_index_global": 55
        },
        {
            "rt": 619,
            "trial_type": "single-stim",
            "stimulus": "<div class = decision-left style='background:#CCFF99; width:330px;height:230px;'><img class = 'decision-stim' src= 'images/83.png'></img></div><div class = decision-right style='background:#CCFF99; width:330px;height:230px;'><img class = 'decision-stim' src= 'images/82.png'></img></div>",
            "trial_count": 9,
            "internal_chunk_id": "0-0.2-9.0-9",
            "time_elapsed": 87543,
            "key_press": 39,
            "type": "decision_first",
            "trial_index": 0,
            "trial_index_global": 56
        },
        {
            "rt": -1,
            "trial_type": "single-stim",
            "stimulus": "<div class = 'selected decision-right' style='background:#CCFF99; width:330px;height:230px;'><img class = 'decision-stim' src= 'images/82.png'></div><div class = 'decision-left fade' style='background:#CCFF99; width:330px;height:230px;'><img class = 'decision-stim  fade' src= 'images/83.png'></div>",
            "internal_chunk_id": "0-0.2-9.0-9",
            "time_elapsed": 88544,
            "key_press": -1,
            "trial_index": 0,
            "trial_index_global": 57
        },
        {
            "rt": 494,
            "trial_type": "single-stim",
            "stimulus": "<div class = 'decision-top-background faded' style='background:#CCFF99; width:330px;height:230px;'><img class = 'decision-stim' src= 'images/82.png'></div><div class = decision-left style='background:#F1B8D4; width:330px;height:230px;'><img class = 'decision-stim' src= 'images/84.png'></img></div><div class = decision-right style='background:#F1B8D4; width:330px;height:230px;'><img class = 'decision-stim' src= 'images/80.png'></img></div>",
            "trial_count": 9,
            "internal_chunk_id": "0-0.2-9",
            "time_elapsed": 89179,
            "key_press": 37,
            "type": "decision_second",
            "trial_index": 0,
            "trial_index_global": 58
        },
        {
            "rt": -1,
            "trial_type": "single-stim",
            "stimulus": "<div class = 'decision-left selected' style='background:#F1B8D4; width:330px;height:230px;'><img class = 'decision-stim' src= 'images/84.png'></div><div class = 'fade decision-right' style='background:#F1B8D4; width:330px;height:230px;'><img class = 'decision-stim' src= 'images/80.png'></div>",
            "internal_chunk_id": "0-0.2-9.2-9",
            "time_elapsed": 90179,
            "key_press": -1,
            "trial_index": 0,
            "trial_index_global": 59
        },
        {
            "rt": -1,
            "trial_type": "single-stim",
            "stimulus": "<div class = 'decision-top-background faded' style='background:#F1B8D4; width:330px;height:230px;'><img class = 'decision-stim' src= 'images/84.png'></div><div><img  class = decision-fb src = 'images/gold_coin.png'></img></div>",
            "trial_count": 9,
            "internal_chunk_id": "0-0.2-9.2-9",
            "time_elapsed": 90687,
            "key_press": -1,
            "type": "decision_FB",
            "trial_index": 0,
            "trial_index_global": 60
        },
        {
            "rt": -1,
            "trial_type": "single-stim",
            "stimulus": "",
            "internal_chunk_id": "0-0.2-9.2-9",
            "time_elapsed": 91689,
            "key_press": -1,
            "trial_index": 0,
            "trial_index_global": 61
        },
        {
            "rt": 20382,
            "trial_type": "text",
            "internal_chunk_id": "0-0",
            "time_elapsed": 112191,
            "key_press": 13,
            "trial_index": 0,
            "trial_index_global": 62
        },
        {
            "rt": -1,
            "trial_type": "single-stim",
            "stimulus": "",
            "internal_chunk_id": "0-0",
            "time_elapsed": 113203,
            "key_press": -1,
            "global_params": {
                "second_stage_stim": {
                    "stimulus": [
                        "<div class = decision-left style='background:#FF9966; width:330px;height:230px;'><img class = 'decision-stim' src= 'images/16.png'></img></div><div class = decision-right style='background:#FF9966; width:330px;height:230px;'><img class = 'decision-stim' src= 'images/13.png'></img></div>",
                        "<div class = decision-left style='background:#FF9966; width:330px;height:230px;'><img class = 'decision-stim' src= 'images/13.png'></img></div><div class = decision-right style='background:#FF9966; width:330px;height:230px;'><img class = 'decision-stim' src= 'images/16.png'></img></div>",
                        "<div class = decision-left style='background:#C2C2FF; width:330px;height:230px;'><img class = 'decision-stim' src= 'images/14.png'></img></div><div class = decision-right style='background:#C2C2FF; width:330px;height:230px;'><img class = 'decision-stim' src= 'images/15.png'></img></div>",
                        "<div class = decision-left style='background:#C2C2FF; width:330px;height:230px;'><img class = 'decision-stim' src= 'images/15.png'></img></div><div class = decision-right style='background:#C2C2FF; width:330px;height:230px;'><img class = 'decision-stim' src= 'images/14.png'></img></div>"
                    ],
                    "id": [
                        [
                            2,
                            3
                        ],
                        [
                            3,
                            2
                        ],
                        [
                            4,
                            5
                        ],
                        [
                            5,
                            4
                        ]
                    ]
                },
                "stims": [
                    "images/12.png",
                    "images/11.png",
                    "images/16.png",
                    "images/13.png",
                    "images/14.png",
                    "images/15.png"
                ],
                "fs_stim": [
                    {
                        "stimulus": "<div class = decision-left style='background:#98bf21; width:330px;height:230px;'><img class = 'decision-stim' src= 'images/12.png'></img></div><div class = decision-right style='background:#98bf21; width:330px;height:230px;'><img class = 'decision-stim' src= 'images/11.png'></img></div>",
                        "id": [
                            0,
                            1
                        ]
                    },
                    {
                        "stimulus": "<div class = decision-left style='background:#98bf21; width:330px;height:230px;'><img class = 'decision-stim' src= 'images/11.png'></img></div><div class = decision-right style='background:#98bf21; width:330px;height:230px;'><img class = 'decision-stim' src= 'images/12.png'></img></div>",
                        "id": [
                            1,
                            0
                        ]
                    }
                ],
                "condition": "test",
                "actions": [
                    37,
                    39
                ]
            },
            "type": "decision_global",
            "trial_index": 0,
            "trial_index_global": 63
        },
        {
            "rt": 721,
            "trial_type": "single-stim",
            "stimulus": "<div class = decision-left style='background:#98bf21; width:330px;height:230px;'><img class = 'decision-stim' src= 'images/11.png'></img></div><div class = decision-right style='background:#98bf21; width:330px;height:230px;'><img class = 'decision-stim' src= 'images/12.png'></img></div>",
            "trial_count": 0,
            "internal_chunk_id": "0-0.5-0.0-0",
            "time_elapsed": 114055,
            "key_press": 39,
            "type": "decision_first",
            "trial_index": 0,
            "trial_index_global": 64
        },
        {
            "rt": -1,
            "trial_type": "single-stim",
            "stimulus": "<div class = 'selected decision-right' style='background:#98bf21; width:330px;height:230px;'><img class = 'decision-stim' src= 'images/12.png'></div><div class = 'decision-left fade' style='background:#98bf21; width:330px;height:230px;'><img class = 'decision-stim  fade' src= 'images/11.png'></div>",
            "internal_chunk_id": "0-0.5-0.0-0",
            "time_elapsed": 115056,
            "key_press": -1,
            "trial_index": 0,
            "trial_index_global": 65
        },
        {
            "rt": 542,
            "trial_type": "single-stim",
            "stimulus": "<div class = 'decision-top-background faded' style='background:#98bf21; width:330px;height:230px;'><img class = 'decision-stim' src= 'images/12.png'></div><div class = decision-left style='background:#C2C2FF; width:330px;height:230px;'><img class = 'decision-stim' src= 'images/14.png'></img></div><div class = decision-right style='background:#C2C2FF; width:330px;height:230px;'><img class = 'decision-stim' src= 'images/15.png'></img></div>",
            "trial_count": 0,
            "internal_chunk_id": "0-0.5-0",
            "time_elapsed": 115720,
            "key_press": 39,
            "type": "decision_second",
            "trial_index": 0,
            "trial_index_global": 66
        },
        {
            "rt": -1,
            "trial_type": "single-stim",
            "stimulus": "<div class = 'decision-right selected' style='background:#C2C2FF; width:330px;height:230px;'><img class = 'decision-stim' src= 'images/15.png'></div><div class = 'fade decision-left' style='background:#C2C2FF; width:330px;height:230px;'><img class = 'decision-stim' src= 'images/14.png'></div>",
            "internal_chunk_id": "0-0.5-0.2-0",
            "time_elapsed": 116721,
            "key_press": -1,
            "trial_index": 0,
            "trial_index_global": 67
        },
        {
            "rt": -1,
            "trial_type": "single-stim",
            "stimulus": "<div class = 'decision-top-background faded' style='background:#C2C2FF; width:330px;height:230px;'><img class = 'decision-stim' src= 'images/15.png'></div><div><img  class = decision-fb src = 'images/gold_coin.png'></img></div>",
            "trial_count": 0,
            "internal_chunk_id": "0-0.5-0.2-0",
            "time_elapsed": 117226,
            "key_press": -1,
            "type": "decision_FB",
            "trial_index": 0,
            "trial_index_global": 68
        },
        {
            "rt": -1,
            "trial_type": "single-stim",
            "stimulus": "",
            "internal_chunk_id": "0-0.5-0.2-0",
            "time_elapsed": 118230,
            "key_press": -1,
            "trial_index": 0,
            "trial_index_global": 69
        },
        {
            "rt": 553,
            "trial_type": "single-stim",
            "stimulus": "<div class = decision-left style='background:#98bf21; width:330px;height:230px;'><img class = 'decision-stim' src= 'images/11.png'></img></div><div class = decision-right style='background:#98bf21; width:330px;height:230px;'><img class = 'decision-stim' src= 'images/12.png'></img></div>",
            "trial_count": 1,
            "internal_chunk_id": "0-0.5-1.0-1",
            "time_elapsed": 118913,
            "key_press": 39,
            "type": "decision_first",
            "trial_index": 0,
            "trial_index_global": 70
        },
        {
            "rt": -1,
            "trial_type": "single-stim",
            "stimulus": "<div class = 'selected decision-right' style='background:#98bf21; width:330px;height:230px;'><img class = 'decision-stim' src= 'images/12.png'></div><div class = 'decision-left fade' style='background:#98bf21; width:330px;height:230px;'><img class = 'decision-stim  fade' src= 'images/11.png'></div>",
            "internal_chunk_id": "0-0.5-1.0-1",
            "time_elapsed": 119913,
            "key_press": -1,
            "trial_index": 0,
            "trial_index_global": 71
        },
        {
            "rt": 464,
            "trial_type": "single-stim",
            "stimulus": "<div class = 'decision-top-background faded' style='background:#98bf21; width:330px;height:230px;'><img class = 'decision-stim' src= 'images/12.png'></div><div class = decision-left style='background:#FF9966; width:330px;height:230px;'><img class = 'decision-stim' src= 'images/13.png'></img></div><div class = decision-right style='background:#FF9966; width:330px;height:230px;'><img class = 'decision-stim' src= 'images/16.png'></img></div>",
            "trial_count": 1,
            "internal_chunk_id": "0-0.5-1",
            "time_elapsed": 120519,
            "key_press": 39,
            "type": "decision_second",
            "trial_index": 0,
            "trial_index_global": 72
        },
        {
            "rt": -1,
            "trial_type": "single-stim",
            "stimulus": "<div class = 'decision-right selected' style='background:#FF9966; width:330px;height:230px;'><img class = 'decision-stim' src= 'images/16.png'></div><div class = 'fade decision-left' style='background:#FF9966; width:330px;height:230px;'><img class = 'decision-stim' src= 'images/13.png'></div>",
            "internal_chunk_id": "0-0.5-1.2-1",
            "time_elapsed": 121520,
            "key_press": -1,
            "trial_index": 0,
            "trial_index_global": 73
        },
        {
            "rt": -1,
            "trial_type": "single-stim",
            "stimulus": "<div class = 'decision-top-background faded' style='background:#FF9966; width:330px;height:230px;'><img class = 'decision-stim' src= 'images/16.png'></div><div style = text-align:center><p class = decision-fb style = 'color:red;font-size:60px'>0</p></div>",
            "trial_count": 1,
            "internal_chunk_id": "0-0.5-1.2-1",
            "time_elapsed": 122026,
            "key_press": -1,
            "type": "decision_FB",
            "trial_index": 0,
            "trial_index_global": 74
        },
        {
            "rt": -1,
            "trial_type": "single-stim",
            "stimulus": "",
            "internal_chunk_id": "0-0.5-1.2-1",
            "time_elapsed": 123029,
            "key_press": -1,
            "trial_index": 0,
            "trial_index_global": 75
        },
        {
            "rt": 380,
            "trial_type": "single-stim",
            "stimulus": "<div class = decision-left style='background:#98bf21; width:330px;height:230px;'><img class = 'decision-stim' src= 'images/11.png'></img></div><div class = decision-right style='background:#98bf21; width:330px;height:230px;'><img class = 'decision-stim' src= 'images/12.png'></img></div>",
            "trial_count": 2,
            "internal_chunk_id": "0-0.5-2.0-2",
            "time_elapsed": 123539,
            "key_press": 37,
            "type": "decision_first",
            "trial_index": 0,
            "trial_index_global": 76
        },
        {
            "rt": -1,
            "trial_type": "single-stim",
            "stimulus": "<div class = 'selected decision-left' style='background:#98bf21; width:330px;height:230px;'><img class = 'decision-stim' src= 'images/11.png'></div><div class = 'decision-right fade' style='background:#98bf21; width:330px;height:230px;'><img class = 'decision-stim  fade' src= 'images/12.png'></div>",
            "internal_chunk_id": "0-0.5-2.0-2",
            "time_elapsed": 124540,
            "key_press": -1,
            "trial_index": 0,
            "trial_index_global": 77
        },
        {
            "rt": 379,
            "trial_type": "single-stim",
            "stimulus": "<div class = 'decision-top-background faded' style='background:#98bf21; width:330px;height:230px;'><img class = 'decision-stim' src= 'images/11.png'></div><div class = decision-left style='background:#FF9966; width:330px;height:230px;'><img class = 'decision-stim' src= 'images/13.png'></img></div><div class = decision-right style='background:#FF9966; width:330px;height:230px;'><img class = 'decision-stim' src= 'images/16.png'></img></div>",
            "trial_count": 2,
            "internal_chunk_id": "0-0.5-2",
            "time_elapsed": 125003,
            "key_press": 37,
            "type": "decision_second",
            "trial_index": 0,
            "trial_index_global": 78
        },
        {
            "rt": -1,
            "trial_type": "single-stim",
            "stimulus": "<div class = 'decision-left selected' style='background:#FF9966; width:330px;height:230px;'><img class = 'decision-stim' src= 'images/13.png'></div><div class = 'fade decision-right' style='background:#FF9966; width:330px;height:230px;'><img class = 'decision-stim' src= 'images/16.png'></div>",
            "internal_chunk_id": "0-0.5-2.2-2",
            "time_elapsed": 126014,
            "key_press": -1,
            "trial_index": 0,
            "trial_index_global": 79
        },
        {
            "rt": -1,
            "trial_type": "single-stim",
            "stimulus": "<div class = 'decision-top-background faded' style='background:#FF9966; width:330px;height:230px;'><img class = 'decision-stim' src= 'images/13.png'></div><div style = text-align:center><p class = decision-fb style = 'color:red;font-size:60px'>0</p></div>",
            "trial_count": 2,
            "internal_chunk_id": "0-0.5-2.2-2",
            "time_elapsed": 126519,
            "key_press": -1,
            "type": "decision_FB",
            "trial_index": 0,
            "trial_index_global": 80
        },
        {
            "rt": -1,
            "trial_type": "single-stim",
            "stimulus": "",
            "internal_chunk_id": "0-0.5-2.2-2",
            "time_elapsed": 127521,
            "key_press": -1,
            "trial_index": 0,
            "trial_index_global": 81
        },
        {
            "rt": 338,
            "trial_type": "single-stim",
            "stimulus": "<div class = decision-left style='background:#98bf21; width:330px;height:230px;'><img class = 'decision-stim' src= 'images/11.png'></img></div><div class = decision-right style='background:#98bf21; width:330px;height:230px;'><img class = 'decision-stim' src= 'images/12.png'></img></div>",
            "trial_count": 3,
            "internal_chunk_id": "0-0.5-3.0-3",
            "time_elapsed": 127959,
            "key_press": 39,
            "type": "decision_first",
            "trial_index": 0,
            "trial_index_global": 82
        },
        {
            "rt": -1,
            "trial_type": "single-stim",
            "stimulus": "<div class = 'selected decision-right' style='background:#98bf21; width:330px;height:230px;'><img class = 'decision-stim' src= 'images/12.png'></div><div class = 'decision-left fade' style='background:#98bf21; width:330px;height:230px;'><img class = 'decision-stim  fade' src= 'images/11.png'></div>",
            "internal_chunk_id": "0-0.5-3.0-3",
            "time_elapsed": 128960,
            "key_press": -1,
            "trial_index": 0,
            "trial_index_global": 83
        },
        {
            "rt": 449,
            "trial_type": "single-stim",
            "stimulus": "<div class = 'decision-top-background faded' style='background:#98bf21; width:330px;height:230px;'><img class = 'decision-stim' src= 'images/12.png'></div><div class = decision-left style='background:#FF9966; width:330px;height:230px;'><img class = 'decision-stim' src= 'images/16.png'></img></div><div class = decision-right style='background:#FF9966; width:330px;height:230px;'><img class = 'decision-stim' src= 'images/13.png'></img></div>",
            "trial_count": 3,
            "internal_chunk_id": "0-0.5-3",
            "time_elapsed": 129531,
            "key_press": 39,
            "type": "decision_second",
            "trial_index": 0,
            "trial_index_global": 84
        },
        {
            "rt": -1,
            "trial_type": "single-stim",
            "stimulus": "<div class = 'decision-right selected' style='background:#FF9966; width:330px;height:230px;'><img class = 'decision-stim' src= 'images/13.png'></div><div class = 'fade decision-left' style='background:#FF9966; width:330px;height:230px;'><img class = 'decision-stim' src= 'images/16.png'></div>",
            "internal_chunk_id": "0-0.5-3.2-3",
            "time_elapsed": 130542,
            "key_press": -1,
            "trial_index": 0,
            "trial_index_global": 85
        },
        {
            "rt": -1,
            "trial_type": "single-stim",
            "stimulus": "<div class = 'decision-top-background faded' style='background:#FF9966; width:330px;height:230px;'><img class = 'decision-stim' src= 'images/13.png'></div><div><img  class = decision-fb src = 'images/gold_coin.png'></img></div>",
            "trial_count": 3,
            "internal_chunk_id": "0-0.5-3.2-3",
            "time_elapsed": 131042,
            "key_press": -1,
            "type": "decision_FB",
            "trial_index": 0,
            "trial_index_global": 86
        },
        {
            "rt": -1,
            "trial_type": "single-stim",
            "stimulus": "",
            "internal_chunk_id": "0-0.5-3.2-3",
            "time_elapsed": 132042,
            "key_press": -1,
            "trial_index": 0,
            "trial_index_global": 87
        },
        {
            "rt": 703,
            "trial_type": "single-stim",
            "stimulus": "<div class = decision-left style='background:#98bf21; width:330px;height:230px;'><img class = 'decision-stim' src= 'images/12.png'></img></div><div class = decision-right style='background:#98bf21; width:330px;height:230px;'><img class = 'decision-stim' src= 'images/11.png'></img></div>",
            "trial_count": 4,
            "internal_chunk_id": "0-0.5-4.0-4",
            "time_elapsed": 132885,
            "key_press": 37,
            "type": "decision_first",
            "trial_index": 0,
            "trial_index_global": 88
        },
        {
            "rt": -1,
            "trial_type": "single-stim",
            "stimulus": "<div class = 'selected decision-left' style='background:#98bf21; width:330px;height:230px;'><img class = 'decision-stim' src= 'images/12.png'></div><div class = 'decision-right fade' style='background:#98bf21; width:330px;height:230px;'><img class = 'decision-stim  fade' src= 'images/11.png'></div>",
            "internal_chunk_id": "0-0.5-4.0-4",
            "time_elapsed": 133885,
            "key_press": -1,
            "trial_index": 0,
            "trial_index_global": 89
        },
        {
            "rt": 485,
            "trial_type": "single-stim",
            "stimulus": "<div class = 'decision-top-background faded' style='background:#98bf21; width:330px;height:230px;'><img class = 'decision-stim' src= 'images/12.png'></div><div class = decision-left style='background:#FF9966; width:330px;height:230px;'><img class = 'decision-stim' src= 'images/16.png'></img></div><div class = decision-right style='background:#FF9966; width:330px;height:230px;'><img class = 'decision-stim' src= 'images/13.png'></img></div>",
            "trial_count": 4,
            "internal_chunk_id": "0-0.5-4",
            "time_elapsed": 134502,
            "key_press": 37,
            "type": "decision_second",
            "trial_index": 0,
            "trial_index_global": 90
        },
        {
            "rt": -1,
            "trial_type": "single-stim",
            "stimulus": "<div class = 'decision-left selected' style='background:#FF9966; width:330px;height:230px;'><img class = 'decision-stim' src= 'images/16.png'></div><div class = 'fade decision-right' style='background:#FF9966; width:330px;height:230px;'><img class = 'decision-stim' src= 'images/13.png'></div>",
            "internal_chunk_id": "0-0.5-4.2-4",
            "time_elapsed": 135512,
            "key_press": -1,
            "trial_index": 0,
            "trial_index_global": 91
        },
        {
            "rt": -1,
            "trial_type": "single-stim",
            "stimulus": "<div class = 'decision-top-background faded' style='background:#FF9966; width:330px;height:230px;'><img class = 'decision-stim' src= 'images/16.png'></div><div><img  class = decision-fb src = 'images/gold_coin.png'></img></div>",
            "trial_count": 4,
            "internal_chunk_id": "0-0.5-4.2-4",
            "time_elapsed": 136019,
            "key_press": -1,
            "type": "decision_FB",
            "trial_index": 0,
            "trial_index_global": 92
        },
        {
            "rt": -1,
            "trial_type": "single-stim",
            "stimulus": "",
            "internal_chunk_id": "0-0.5-4.2-4",
            "time_elapsed": 137028,
            "key_press": -1,
            "trial_index": 0,
            "trial_index_global": 93
        },
        {
            "rt": 571,
            "trial_type": "single-stim",
            "stimulus": "<div class = decision-left style='background:#98bf21; width:330px;height:230px;'><img class = 'decision-stim' src= 'images/11.png'></img></div><div class = decision-right style='background:#98bf21; width:330px;height:230px;'><img class = 'decision-stim' src= 'images/12.png'></img></div>",
            "trial_count": 5,
            "internal_chunk_id": "0-0.5-5.0-5",
            "time_elapsed": 137738,
            "key_press": 39,
            "type": "decision_first",
            "trial_index": 0,
            "trial_index_global": 94
        },
        {
            "rt": -1,
            "trial_type": "single-stim",
            "stimulus": "<div class = 'selected decision-right' style='background:#98bf21; width:330px;height:230px;'><img class = 'decision-stim' src= 'images/12.png'></div><div class = 'decision-left fade' style='background:#98bf21; width:330px;height:230px;'><img class = 'decision-stim  fade' src= 'images/11.png'></div>",
            "internal_chunk_id": "0-0.5-5.0-5",
            "time_elapsed": 138748,
            "key_press": -1,
            "trial_index": 0,
            "trial_index_global": 95
        },
        {
            "rt": 594,
            "trial_type": "single-stim",
            "stimulus": "<div class = 'decision-top-background faded' style='background:#98bf21; width:330px;height:230px;'><img class = 'decision-stim' src= 'images/12.png'></div><div class = decision-left style='background:#FF9966; width:330px;height:230px;'><img class = 'decision-stim' src= 'images/16.png'></img></div><div class = decision-right style='background:#FF9966; width:330px;height:230px;'><img class = 'decision-stim' src= 'images/13.png'></img></div>",
            "trial_count": 5,
            "internal_chunk_id": "0-0.5-5",
            "time_elapsed": 139487,
            "key_press": 37,
            "type": "decision_second",
            "trial_index": 0,
            "trial_index_global": 96
        },
        {
            "rt": -1,
            "trial_type": "single-stim",
            "stimulus": "<div class = 'decision-left selected' style='background:#FF9966; width:330px;height:230px;'><img class = 'decision-stim' src= 'images/16.png'></div><div class = 'fade decision-right' style='background:#FF9966; width:330px;height:230px;'><img class = 'decision-stim' src= 'images/13.png'></div>",
            "internal_chunk_id": "0-0.5-5.2-5",
            "time_elapsed": 140487,
            "key_press": -1,
            "trial_index": 0,
            "trial_index_global": 97
        },
        {
            "rt": -1,
            "trial_type": "single-stim",
            "stimulus": "<div class = 'decision-top-background faded' style='background:#FF9966; width:330px;height:230px;'><img class = 'decision-stim' src= 'images/16.png'></div><div style = text-align:center><p class = decision-fb style = 'color:red;font-size:60px'>0</p></div>",
            "trial_count": 5,
            "internal_chunk_id": "0-0.5-5.2-5",
            "time_elapsed": 140992,
            "key_press": -1,
            "type": "decision_FB",
            "trial_index": 0,
            "trial_index_global": 98
        },
        {
            "rt": -1,
            "trial_type": "single-stim",
            "stimulus": "",
            "internal_chunk_id": "0-0.5-5.2-5",
            "time_elapsed": 141997,
            "key_press": -1,
            "trial_index": 0,
            "trial_index_global": 99
        },
        {
            "rt": 472,
            "trial_type": "single-stim",
            "stimulus": "<div class = decision-left style='background:#98bf21; width:330px;height:230px;'><img class = 'decision-stim' src= 'images/11.png'></img></div><div class = decision-right style='background:#98bf21; width:330px;height:230px;'><img class = 'decision-stim' src= 'images/12.png'></img></div>",
            "trial_count": 6,
            "internal_chunk_id": "0-0.5-6.0-6",
            "time_elapsed": 142619,
            "key_press": 39,
            "type": "decision_first",
            "trial_index": 0,
            "trial_index_global": 100
        },
        {
            "rt": -1,
            "trial_type": "single-stim",
            "stimulus": "<div class = 'selected decision-right' style='background:#98bf21; width:330px;height:230px;'><img class = 'decision-stim' src= 'images/12.png'></div><div class = 'decision-left fade' style='background:#98bf21; width:330px;height:230px;'><img class = 'decision-stim  fade' src= 'images/11.png'></div>",
            "internal_chunk_id": "0-0.5-6.0-6",
            "time_elapsed": 143620,
            "key_press": -1,
            "trial_index": 0,
            "trial_index_global": 101
        },
        {
            "rt": 556,
            "trial_type": "single-stim",
            "stimulus": "<div class = 'decision-top-background faded' style='background:#98bf21; width:330px;height:230px;'><img class = 'decision-stim' src= 'images/12.png'></div><div class = decision-left style='background:#C2C2FF; width:330px;height:230px;'><img class = 'decision-stim' src= 'images/15.png'></img></div><div class = decision-right style='background:#C2C2FF; width:330px;height:230px;'><img class = 'decision-stim' src= 'images/14.png'></img></div>",
            "trial_count": 6,
            "internal_chunk_id": "0-0.5-6",
            "time_elapsed": 144308,
            "key_press": 37,
            "type": "decision_second",
            "trial_index": 0,
            "trial_index_global": 102
        },
        {
            "rt": -1,
            "trial_type": "single-stim",
            "stimulus": "<div class = 'decision-left selected' style='background:#C2C2FF; width:330px;height:230px;'><img class = 'decision-stim' src= 'images/15.png'></div><div class = 'fade decision-right' style='background:#C2C2FF; width:330px;height:230px;'><img class = 'decision-stim' src= 'images/14.png'></div>",
            "internal_chunk_id": "0-0.5-6.2-6",
            "time_elapsed": 145308,
            "key_press": -1,
            "trial_index": 0,
            "trial_index_global": 103
        },
        {
            "rt": -1,
            "trial_type": "single-stim",
            "stimulus": "<div class = 'decision-top-background faded' style='background:#C2C2FF; width:330px;height:230px;'><img class = 'decision-stim' src= 'images/15.png'></div><div style = text-align:center><p class = decision-fb style = 'color:red;font-size:60px'>0</p></div>",
            "trial_count": 6,
            "internal_chunk_id": "0-0.5-6.2-6",
            "time_elapsed": 145810,
            "key_press": -1,
            "type": "decision_FB",
            "trial_index": 0,
            "trial_index_global": 104
        },
        {
            "rt": -1,
            "trial_type": "single-stim",
            "stimulus": "",
            "internal_chunk_id": "0-0.5-6.2-6",
            "time_elapsed": 146815,
            "key_press": -1,
            "trial_index": 0,
            "trial_index_global": 105
        },
        {
            "rt": 374,
            "trial_type": "single-stim",
            "stimulus": "<div class = decision-left style='background:#98bf21; width:330px;height:230px;'><img class = 'decision-stim' src= 'images/12.png'></img></div><div class = decision-right style='background:#98bf21; width:330px;height:230px;'><img class = 'decision-stim' src= 'images/11.png'></img></div>",
            "trial_count": 7,
            "internal_chunk_id": "0-0.5-7.0-7",
            "time_elapsed": 147299,
            "key_press": 37,
            "type": "decision_first",
            "trial_index": 0,
            "trial_index_global": 106
        },
        {
            "rt": -1,
            "trial_type": "single-stim",
            "stimulus": "<div class = 'selected decision-left' style='background:#98bf21; width:330px;height:230px;'><img class = 'decision-stim' src= 'images/12.png'></div><div class = 'decision-right fade' style='background:#98bf21; width:330px;height:230px;'><img class = 'decision-stim  fade' src= 'images/11.png'></div>",
            "internal_chunk_id": "0-0.5-7.0-7",
            "time_elapsed": 148300,
            "key_press": -1,
            "trial_index": 0,
            "trial_index_global": 107
        },
        {
            "rt": 461,
            "trial_type": "single-stim",
            "stimulus": "<div class = 'decision-top-background faded' style='background:#98bf21; width:330px;height:230px;'><img class = 'decision-stim' src= 'images/12.png'></div><div class = decision-left style='background:#C2C2FF; width:330px;height:230px;'><img class = 'decision-stim' src= 'images/14.png'></img></div><div class = decision-right style='background:#C2C2FF; width:330px;height:230px;'><img class = 'decision-stim' src= 'images/15.png'></img></div>",
            "trial_count": 7,
            "internal_chunk_id": "0-0.5-7",
            "time_elapsed": 148924,
            "key_press": 39,
            "type": "decision_second",
            "trial_index": 0,
            "trial_index_global": 108
        },
        {
            "rt": -1,
            "trial_type": "single-stim",
            "stimulus": "<div class = 'decision-right selected' style='background:#C2C2FF; width:330px;height:230px;'><img class = 'decision-stim' src= 'images/15.png'></div><div class = 'fade decision-left' style='background:#C2C2FF; width:330px;height:230px;'><img class = 'decision-stim' src= 'images/14.png'></div>",
            "internal_chunk_id": "0-0.5-7.2-7",
            "time_elapsed": 149934,
            "key_press": -1,
            "trial_index": 0,
            "trial_index_global": 109
        },
        {
            "rt": -1,
            "trial_type": "single-stim",
            "stimulus": "<div class = 'decision-top-background faded' style='background:#C2C2FF; width:330px;height:230px;'><img class = 'decision-stim' src= 'images/15.png'></div><div><img  class = decision-fb src = 'images/gold_coin.png'></img></div>",
            "trial_count": 7,
            "internal_chunk_id": "0-0.5-7.2-7",
            "time_elapsed": 150434,
            "key_press": -1,
            "type": "decision_FB",
            "trial_index": 0,
            "trial_index_global": 110
        },
        {
            "rt": -1,
            "trial_type": "single-stim",
            "stimulus": "",
            "internal_chunk_id": "0-0.5-7.2-7",
            "time_elapsed": 151435,
            "key_press": -1,
            "trial_index": 0,
            "trial_index_global": 111
        },
        {
            "rt": 440,
            "trial_type": "single-stim",
            "stimulus": "<div class = decision-left style='background:#98bf21; width:330px;height:230px;'><img class = 'decision-stim' src= 'images/11.png'></img></div><div class = decision-right style='background:#98bf21; width:330px;height:230px;'><img class = 'decision-stim' src= 'images/12.png'></img></div>",
            "trial_count": 8,
            "internal_chunk_id": "0-0.5-8.0-8",
            "time_elapsed": 152025,
            "key_press": 37,
            "type": "decision_first",
            "trial_index": 0,
            "trial_index_global": 112
        },
        {
            "rt": -1,
            "trial_type": "single-stim",
            "stimulus": "<div class = 'selected decision-left' style='background:#98bf21; width:330px;height:230px;'><img class = 'decision-stim' src= 'images/11.png'></div><div class = 'decision-right fade' style='background:#98bf21; width:330px;height:230px;'><img class = 'decision-stim  fade' src= 'images/12.png'></div>",
            "internal_chunk_id": "0-0.5-8.0-8",
            "time_elapsed": 153026,
            "key_press": -1,
            "trial_index": 0,
            "trial_index_global": 113
        },
        {
            "rt": 857,
            "trial_type": "single-stim",
            "stimulus": "<div class = 'decision-top-background faded' style='background:#98bf21; width:330px;height:230px;'><img class = 'decision-stim' src= 'images/11.png'></div><div class = decision-left style='background:#FF9966; width:330px;height:230px;'><img class = 'decision-stim' src= 'images/13.png'></img></div><div class = decision-right style='background:#FF9966; width:330px;height:230px;'><img class = 'decision-stim' src= 'images/16.png'></img></div>",
            "trial_count": 8,
            "internal_chunk_id": "0-0.5-8",
            "time_elapsed": 154035,
            "key_press": 37,
            "type": "decision_second",
            "trial_index": 0,
            "trial_index_global": 114
        },
        {
            "rt": -1,
            "trial_type": "single-stim",
            "stimulus": "<div class = 'decision-left selected' style='background:#FF9966; width:330px;height:230px;'><img class = 'decision-stim' src= 'images/13.png'></div><div class = 'fade decision-right' style='background:#FF9966; width:330px;height:230px;'><img class = 'decision-stim' src= 'images/16.png'></div>",
            "internal_chunk_id": "0-0.5-8.2-8",
            "time_elapsed": 155035,
            "key_press": -1,
            "trial_index": 0,
            "trial_index_global": 115
        },
        {
            "rt": -1,
            "trial_type": "single-stim",
            "stimulus": "<div class = 'decision-top-background faded' style='background:#FF9966; width:330px;height:230px;'><img class = 'decision-stim' src= 'images/13.png'></div><div><img  class = decision-fb src = 'images/gold_coin.png'></img></div>",
            "trial_count": 8,
            "internal_chunk_id": "0-0.5-8.2-8",
            "time_elapsed": 155541,
            "key_press": -1,
            "type": "decision_FB",
            "trial_index": 0,
            "trial_index_global": 116
        },
        {
            "rt": -1,
            "trial_type": "single-stim",
            "stimulus": "",
            "internal_chunk_id": "0-0.5-8.2-8",
            "time_elapsed": 156546,
            "key_press": -1,
            "trial_index": 0,
            "trial_index_global": 117
        },
        {
            "rt": 672,
            "trial_type": "single-stim",
            "stimulus": "<div class = decision-left style='background:#98bf21; width:330px;height:230px;'><img class = 'decision-stim' src= 'images/11.png'></img></div><div class = decision-right style='background:#98bf21; width:330px;height:230px;'><img class = 'decision-stim' src= 'images/12.png'></img></div>",
            "trial_count": 9,
            "internal_chunk_id": "0-0.5-9.0-9",
            "time_elapsed": 157358,
            "key_press": 39,
            "type": "decision_first",
            "trial_index": 0,
            "trial_index_global": 118
        },
        {
            "rt": -1,
            "trial_type": "single-stim",
            "stimulus": "<div class = 'selected decision-right' style='background:#98bf21; width:330px;height:230px;'><img class = 'decision-stim' src= 'images/12.png'></div><div class = 'decision-left fade' style='background:#98bf21; width:330px;height:230px;'><img class = 'decision-stim  fade' src= 'images/11.png'></div>",
            "internal_chunk_id": "0-0.5-9.0-9",
            "time_elapsed": 158359,
            "key_press": -1,
            "trial_index": 0,
            "trial_index_global": 119
        },
        {
            "rt": 871,
            "trial_type": "single-stim",
            "stimulus": "<div class = 'decision-top-background faded' style='background:#98bf21; width:330px;height:230px;'><img class = 'decision-stim' src= 'images/12.png'></div><div class = decision-left style='background:#FF9966; width:330px;height:230px;'><img class = 'decision-stim' src= 'images/16.png'></img></div><div class = decision-right style='background:#FF9966; width:330px;height:230px;'><img class = 'decision-stim' src= 'images/13.png'></img></div>",
            "trial_count": 9,
            "internal_chunk_id": "0-0.5-9",
            "time_elapsed": 159362,
            "key_press": 37,
            "type": "decision_second",
            "trial_index": 0,
            "trial_index_global": 120
        },
        {
            "rt": -1,
            "trial_type": "single-stim",
            "stimulus": "<div class = 'decision-left selected' style='background:#FF9966; width:330px;height:230px;'><img class = 'decision-stim' src= 'images/16.png'></div><div class = 'fade decision-right' style='background:#FF9966; width:330px;height:230px;'><img class = 'decision-stim' src= 'images/13.png'></div>",
            "internal_chunk_id": "0-0.5-9.2-9",
            "time_elapsed": 160362,
            "key_press": -1,
            "trial_index": 0,
            "trial_index_global": 121
        },
        {
            "rt": -1,
            "trial_type": "single-stim",
            "stimulus": "<div class = 'decision-top-background faded' style='background:#FF9966; width:330px;height:230px;'><img class = 'decision-stim' src= 'images/16.png'></div><div style = text-align:center><p class = decision-fb style = 'color:red;font-size:60px'>0</p></div>",
            "trial_count": 9,
            "internal_chunk_id": "0-0.5-9.2-9",
            "time_elapsed": 160865,
            "key_press": -1,
            "type": "decision_FB",
            "trial_index": 0,
            "trial_index_global": 122
        },
        {
            "rt": -1,
            "trial_type": "single-stim",
            "stimulus": "",
            "internal_chunk_id": "0-0.5-9.2-9",
            "time_elapsed": 161873,
            "key_press": -1,
            "trial_index": 0,
            "trial_index_global": 123
        },
        {
            "rt": 362,
            "trial_type": "single-stim",
            "stimulus": "<div class = decision-left style='background:#98bf21; width:330px;height:230px;'><img class = 'decision-stim' src= 'images/12.png'></img></div><div class = decision-right style='background:#98bf21; width:330px;height:230px;'><img class = 'decision-stim' src= 'images/11.png'></img></div>",
            "trial_count": 10,
            "internal_chunk_id": "0-0.5-10.0-10",
            "time_elapsed": 162375,
            "key_press": 39,
            "type": "decision_first",
            "trial_index": 0,
            "trial_index_global": 124
        },
        {
            "rt": -1,
            "trial_type": "single-stim",
            "stimulus": "<div class = 'selected decision-right' style='background:#98bf21; width:330px;height:230px;'><img class = 'decision-stim' src= 'images/11.png'></div><div class = 'decision-left fade' style='background:#98bf21; width:330px;height:230px;'><img class = 'decision-stim  fade' src= 'images/12.png'></div>",
            "internal_chunk_id": "0-0.5-10.0-10",
            "time_elapsed": 163376,
            "key_press": -1,
            "trial_index": 0,
            "trial_index_global": 125
        },
        {
            "rt": 206,
            "trial_type": "single-stim",
            "stimulus": "<div class = 'decision-top-background faded' style='background:#98bf21; width:330px;height:230px;'><img class = 'decision-stim' src= 'images/11.png'></div><div class = decision-left style='background:#C2C2FF; width:330px;height:230px;'><img class = 'decision-stim' src= 'images/14.png'></img></div><div class = decision-right style='background:#C2C2FF; width:330px;height:230px;'><img class = 'decision-stim' src= 'images/15.png'></img></div>",
            "trial_count": 10,
            "internal_chunk_id": "0-0.5-10",
            "time_elapsed": 163734,
            "key_press": 37,
            "type": "decision_second",
            "trial_index": 0,
            "trial_index_global": 126
        },
        {
            "rt": -1,
            "trial_type": "single-stim",
            "stimulus": "<div class = 'decision-left selected' style='background:#C2C2FF; width:330px;height:230px;'><img class = 'decision-stim' src= 'images/14.png'></div><div class = 'fade decision-right' style='background:#C2C2FF; width:330px;height:230px;'><img class = 'decision-stim' src= 'images/15.png'></div>",
            "internal_chunk_id": "0-0.5-10.2-10",
            "time_elapsed": 164734,
            "key_press": -1,
            "trial_index": 0,
            "trial_index_global": 127
        },
        {
            "rt": -1,
            "trial_type": "single-stim",
            "stimulus": "<div class = 'decision-top-background faded' style='background:#C2C2FF; width:330px;height:230px;'><img class = 'decision-stim' src= 'images/14.png'></div><div><img  class = decision-fb src = 'images/gold_coin.png'></img></div>",
            "trial_count": 10,
            "internal_chunk_id": "0-0.5-10.2-10",
            "time_elapsed": 165240,
            "key_press": -1,
            "type": "decision_FB",
            "trial_index": 0,
            "trial_index_global": 128
        },
        {
            "rt": -1,
            "trial_type": "single-stim",
            "stimulus": "",
            "internal_chunk_id": "0-0.5-10.2-10",
            "time_elapsed": 166244,
            "key_press": -1,
            "trial_index": 0,
            "trial_index_global": 129
        },
        {
            "rt": 407,
            "trial_type": "single-stim",
            "stimulus": "<div class = decision-left style='background:#98bf21; width:330px;height:230px;'><img class = 'decision-stim' src= 'images/12.png'></img></div><div class = decision-right style='background:#98bf21; width:330px;height:230px;'><img class = 'decision-stim' src= 'images/11.png'></img></div>",
            "trial_count": 11,
            "internal_chunk_id": "0-0.5-11.0-11",
            "time_elapsed": 166761,
            "key_press": 39,
            "type": "decision_first",
            "trial_index": 0,
            "trial_index_global": 130
        },
        {
            "rt": -1,
            "trial_type": "single-stim",
            "stimulus": "<div class = 'selected decision-right' style='background:#98bf21; width:330px;height:230px;'><img class = 'decision-stim' src= 'images/11.png'></div><div class = 'decision-left fade' style='background:#98bf21; width:330px;height:230px;'><img class = 'decision-stim  fade' src= 'images/12.png'></div>",
            "internal_chunk_id": "0-0.5-11.0-11",
            "time_elapsed": 167762,
            "key_press": -1,
            "trial_index": 0,
            "trial_index_global": 131
        },
        {
            "rt": 263,
            "trial_type": "single-stim",
            "stimulus": "<div class = 'decision-top-background faded' style='background:#98bf21; width:330px;height:230px;'><img class = 'decision-stim' src= 'images/11.png'></div><div class = decision-left style='background:#C2C2FF; width:330px;height:230px;'><img class = 'decision-stim' src= 'images/15.png'></img></div><div class = decision-right style='background:#C2C2FF; width:330px;height:230px;'><img class = 'decision-stim' src= 'images/14.png'></img></div>",
            "trial_count": 11,
            "internal_chunk_id": "0-0.5-11",
            "time_elapsed": 168128,
            "key_press": 39,
            "type": "decision_second",
            "trial_index": 0,
            "trial_index_global": 132
        },
        {
            "rt": -1,
            "trial_type": "single-stim",
            "stimulus": "<div class = 'decision-right selected' style='background:#C2C2FF; width:330px;height:230px;'><img class = 'decision-stim' src= 'images/14.png'></div><div class = 'fade decision-left' style='background:#C2C2FF; width:330px;height:230px;'><img class = 'decision-stim' src= 'images/15.png'></div>",
            "internal_chunk_id": "0-0.5-11.2-11",
            "time_elapsed": 169129,
            "key_press": -1,
            "trial_index": 0,
            "trial_index_global": 133
        },
        {
            "rt": -1,
            "trial_type": "single-stim",
            "stimulus": "<div class = 'decision-top-background faded' style='background:#C2C2FF; width:330px;height:230px;'><img class = 'decision-stim' src= 'images/14.png'></div><div><img  class = decision-fb src = 'images/gold_coin.png'></img></div>",
            "trial_count": 11,
            "internal_chunk_id": "0-0.5-11.2-11",
            "time_elapsed": 169634,
            "key_press": -1,
            "type": "decision_FB",
            "trial_index": 0,
            "trial_index_global": 134
        },
        {
            "rt": -1,
            "trial_type": "single-stim",
            "stimulus": "",
            "internal_chunk_id": "0-0.5-11.2-11",
            "time_elapsed": 170644,
            "key_press": -1,
            "trial_index": 0,
            "trial_index_global": 135
        },
        {
            "rt": 325,
            "trial_type": "single-stim",
            "stimulus": "<div class = decision-left style='background:#98bf21; width:330px;height:230px;'><img class = 'decision-stim' src= 'images/11.png'></img></div><div class = decision-right style='background:#98bf21; width:330px;height:230px;'><img class = 'decision-stim' src= 'images/12.png'></img></div>",
            "trial_count": 12,
            "internal_chunk_id": "0-0.5-12.0-12",
            "time_elapsed": 171079,
            "key_press": 37,
            "type": "decision_first",
            "trial_index": 0,
            "trial_index_global": 136
        },
        {
            "rt": -1,
            "trial_type": "single-stim",
            "stimulus": "<div class = 'selected decision-left' style='background:#98bf21; width:330px;height:230px;'><img class = 'decision-stim' src= 'images/11.png'></div><div class = 'decision-right fade' style='background:#98bf21; width:330px;height:230px;'><img class = 'decision-stim  fade' src= 'images/12.png'></div>",
            "internal_chunk_id": "0-0.5-12.0-12",
            "time_elapsed": 172080,
            "key_press": -1,
            "trial_index": 0,
            "trial_index_global": 137
        },
        {
            "rt": 172,
            "trial_type": "single-stim",
            "stimulus": "<div class = 'decision-top-background faded' style='background:#98bf21; width:330px;height:230px;'><img class = 'decision-stim' src= 'images/11.png'></div><div class = decision-left style='background:#FF9966; width:330px;height:230px;'><img class = 'decision-stim' src= 'images/16.png'></img></div><div class = decision-right style='background:#FF9966; width:330px;height:230px;'><img class = 'decision-stim' src= 'images/13.png'></img></div>",
            "trial_count": 12,
            "internal_chunk_id": "0-0.5-12",
            "time_elapsed": 172454,
            "key_press": 37,
            "type": "decision_second",
            "trial_index": 0,
            "trial_index_global": 138
        },
        {
            "rt": -1,
            "trial_type": "single-stim",
            "stimulus": "<div class = 'decision-left selected' style='background:#FF9966; width:330px;height:230px;'><img class = 'decision-stim' src= 'images/16.png'></div><div class = 'fade decision-right' style='background:#FF9966; width:330px;height:230px;'><img class = 'decision-stim' src= 'images/13.png'></div>",
            "internal_chunk_id": "0-0.5-12.2-12",
            "time_elapsed": 173455,
            "key_press": -1,
            "trial_index": 0,
            "trial_index_global": 139
        },
        {
            "rt": -1,
            "trial_type": "single-stim",
            "stimulus": "<div class = 'decision-top-background faded' style='background:#FF9966; width:330px;height:230px;'><img class = 'decision-stim' src= 'images/16.png'></div><div><img  class = decision-fb src = 'images/gold_coin.png'></img></div>",
            "trial_count": 12,
            "internal_chunk_id": "0-0.5-12.2-12",
            "time_elapsed": 173957,
            "key_press": -1,
            "type": "decision_FB",
            "trial_index": 0,
            "trial_index_global": 140
        },
        {
            "rt": -1,
            "trial_type": "single-stim",
            "stimulus": "",
            "internal_chunk_id": "0-0.5-12.2-12",
            "time_elapsed": 174964,
            "key_press": -1,
            "trial_index": 0,
            "trial_index_global": 141
        },
        {
            "rt": 286,
            "trial_type": "single-stim",
            "stimulus": "<div class = decision-left style='background:#98bf21; width:330px;height:230px;'><img class = 'decision-stim' src= 'images/11.png'></img></div><div class = decision-right style='background:#98bf21; width:330px;height:230px;'><img class = 'decision-stim' src= 'images/12.png'></img></div>",
            "trial_count": 13,
            "internal_chunk_id": "0-0.5-13.0-13",
            "time_elapsed": 175410,
            "key_press": 39,
            "type": "decision_first",
            "trial_index": 0,
            "trial_index_global": 142
        },
        {
            "rt": -1,
            "trial_type": "single-stim",
            "stimulus": "<div class = 'selected decision-right' style='background:#98bf21; width:330px;height:230px;'><img class = 'decision-stim' src= 'images/12.png'></div><div class = 'decision-left fade' style='background:#98bf21; width:330px;height:230px;'><img class = 'decision-stim  fade' src= 'images/11.png'></div>",
            "internal_chunk_id": "0-0.5-13.0-13",
            "time_elapsed": 176410,
            "key_press": -1,
            "trial_index": 0,
            "trial_index_global": 143
        },
        {
            "rt": 135,
            "trial_type": "single-stim",
            "stimulus": "<div class = 'decision-top-background faded' style='background:#98bf21; width:330px;height:230px;'><img class = 'decision-stim' src= 'images/12.png'></div><div class = decision-left style='background:#C2C2FF; width:330px;height:230px;'><img class = 'decision-stim' src= 'images/14.png'></img></div><div class = decision-right style='background:#C2C2FF; width:330px;height:230px;'><img class = 'decision-stim' src= 'images/15.png'></img></div>",
            "trial_count": 13,
            "internal_chunk_id": "0-0.5-13",
            "time_elapsed": 176717,
            "key_press": 37,
            "type": "decision_second",
            "trial_index": 0,
            "trial_index_global": 144
        },
        {
            "rt": -1,
            "trial_type": "single-stim",
            "stimulus": "<div class = 'decision-left selected' style='background:#C2C2FF; width:330px;height:230px;'><img class = 'decision-stim' src= 'images/14.png'></div><div class = 'fade decision-right' style='background:#C2C2FF; width:330px;height:230px;'><img class = 'decision-stim' src= 'images/15.png'></div>",
            "internal_chunk_id": "0-0.5-13.2-13",
            "time_elapsed": 177717,
            "key_press": -1,
            "trial_index": 0,
            "trial_index_global": 145
        },
        {
            "rt": -1,
            "trial_type": "single-stim",
            "stimulus": "<div class = 'decision-top-background faded' style='background:#C2C2FF; width:330px;height:230px;'><img class = 'decision-stim' src= 'images/14.png'></div><div style = text-align:center><p class = decision-fb style = 'color:red;font-size:60px'>0</p></div>",
            "trial_count": 13,
            "internal_chunk_id": "0-0.5-13.2-13",
            "time_elapsed": 178217,
            "key_press": -1,
            "type": "decision_FB",
            "trial_index": 0,
            "trial_index_global": 146
        },
        {
            "rt": -1,
            "trial_type": "single-stim",
            "stimulus": "",
            "internal_chunk_id": "0-0.5-13.2-13",
            "time_elapsed": 179227,
            "key_press": -1,
            "trial_index": 0,
            "trial_index_global": 147
        },
        {
            "rt": 371,
            "trial_type": "single-stim",
            "stimulus": "<div class = decision-left style='background:#98bf21; width:330px;height:230px;'><img class = 'decision-stim' src= 'images/12.png'></img></div><div class = decision-right style='background:#98bf21; width:330px;height:230px;'><img class = 'decision-stim' src= 'images/11.png'></img></div>",
            "trial_count": 14,
            "internal_chunk_id": "0-0.5-14.0-14",
            "time_elapsed": 179760,
            "key_press": 37,
            "type": "decision_first",
            "trial_index": 0,
            "trial_index_global": 148
        },
        {
            "rt": -1,
            "trial_type": "single-stim",
            "stimulus": "<div class = 'selected decision-left' style='background:#98bf21; width:330px;height:230px;'><img class = 'decision-stim' src= 'images/12.png'></div><div class = 'decision-right fade' style='background:#98bf21; width:330px;height:230px;'><img class = 'decision-stim  fade' src= 'images/11.png'></div>",
            "internal_chunk_id": "0-0.5-14.0-14",
            "time_elapsed": 180761,
            "key_press": -1,
            "trial_index": 0,
            "trial_index_global": 149
        },
        {
            "rt": 294,
            "trial_type": "single-stim",
            "stimulus": "<div class = 'decision-top-background faded' style='background:#98bf21; width:330px;height:230px;'><img class = 'decision-stim' src= 'images/12.png'></div><div class = decision-left style='background:#FF9966; width:330px;height:230px;'><img class = 'decision-stim' src= 'images/13.png'></img></div><div class = decision-right style='background:#FF9966; width:330px;height:230px;'><img class = 'decision-stim' src= 'images/16.png'></img></div>",
            "trial_count": 14,
            "internal_chunk_id": "0-0.5-14",
            "time_elapsed": 181248,
            "key_press": 37,
            "type": "decision_second",
            "trial_index": 0,
            "trial_index_global": 150
        },
        {
            "rt": -1,
            "trial_type": "single-stim",
            "stimulus": "<div class = 'decision-left selected' style='background:#FF9966; width:330px;height:230px;'><img class = 'decision-stim' src= 'images/13.png'></div><div class = 'fade decision-right' style='background:#FF9966; width:330px;height:230px;'><img class = 'decision-stim' src= 'images/16.png'></div>",
            "internal_chunk_id": "0-0.5-14.2-14",
            "time_elapsed": 182248,
            "key_press": -1,
            "trial_index": 0,
            "trial_index_global": 151
        },
        {
            "rt": -1,
            "trial_type": "single-stim",
            "stimulus": "<div class = 'decision-top-background faded' style='background:#FF9966; width:330px;height:230px;'><img class = 'decision-stim' src= 'images/13.png'></div><div><img  class = decision-fb src = 'images/gold_coin.png'></img></div>",
            "trial_count": 14,
            "internal_chunk_id": "0-0.5-14.2-14",
            "time_elapsed": 182751,
            "key_press": -1,
            "type": "decision_FB",
            "trial_index": 0,
            "trial_index_global": 152
        },
        {
            "rt": -1,
            "trial_type": "single-stim",
            "stimulus": "",
            "internal_chunk_id": "0-0.5-14.2-14",
            "time_elapsed": 183753,
            "key_press": -1,
            "trial_index": 0,
            "trial_index_global": 153
        },
        {
            "rt": 299,
            "trial_type": "single-stim",
            "stimulus": "<div class = decision-left style='background:#98bf21; width:330px;height:230px;'><img class = 'decision-stim' src= 'images/12.png'></img></div><div class = decision-right style='background:#98bf21; width:330px;height:230px;'><img class = 'decision-stim' src= 'images/11.png'></img></div>",
            "trial_count": 15,
            "internal_chunk_id": "0-0.5-15.0-15",
            "time_elapsed": 184212,
            "key_press": 37,
            "type": "decision_first",
            "trial_index": 0,
            "trial_index_global": 154
        },
        {
            "rt": -1,
            "trial_type": "single-stim",
            "stimulus": "<div class = 'selected decision-left' style='background:#98bf21; width:330px;height:230px;'><img class = 'decision-stim' src= 'images/12.png'></div><div class = 'decision-right fade' style='background:#98bf21; width:330px;height:230px;'><img class = 'decision-stim  fade' src= 'images/11.png'></div>",
            "internal_chunk_id": "0-0.5-15.0-15",
            "time_elapsed": 185212,
            "key_press": -1,
            "trial_index": 0,
            "trial_index_global": 155
        },
        {
            "rt": 193,
            "trial_type": "single-stim",
            "stimulus": "<div class = 'decision-top-background faded' style='background:#98bf21; width:330px;height:230px;'><img class = 'decision-stim' src= 'images/12.png'></div><div class = decision-left style='background:#FF9966; width:330px;height:230px;'><img class = 'decision-stim' src= 'images/13.png'></img></div><div class = decision-right style='background:#FF9966; width:330px;height:230px;'><img class = 'decision-stim' src= 'images/16.png'></img></div>",
            "trial_count": 15,
            "internal_chunk_id": "0-0.5-15",
            "time_elapsed": 185578,
            "key_press": 39,
            "type": "decision_second",
            "trial_index": 0,
            "trial_index_global": 156
        },
        {
            "rt": -1,
            "trial_type": "single-stim",
            "stimulus": "<div class = 'decision-right selected' style='background:#FF9966; width:330px;height:230px;'><img class = 'decision-stim' src= 'images/16.png'></div><div class = 'fade decision-left' style='background:#FF9966; width:330px;height:230px;'><img class = 'decision-stim' src= 'images/13.png'></div>",
            "internal_chunk_id": "0-0.5-15.2-15",
            "time_elapsed": 186579,
            "key_press": -1,
            "trial_index": 0,
            "trial_index_global": 157
        },
        {
            "rt": -1,
            "trial_type": "single-stim",
            "stimulus": "<div class = 'decision-top-background faded' style='background:#FF9966; width:330px;height:230px;'><img class = 'decision-stim' src= 'images/16.png'></div><div><img  class = decision-fb src = 'images/gold_coin.png'></img></div>",
            "trial_count": 15,
            "internal_chunk_id": "0-0.5-15.2-15",
            "time_elapsed": 187085,
            "key_press": -1,
            "type": "decision_FB",
            "trial_index": 0,
            "trial_index_global": 158
        },
        {
            "rt": -1,
            "trial_type": "single-stim",
            "stimulus": "",
            "internal_chunk_id": "0-0.5-15.2-15",
            "time_elapsed": 188094,
            "key_press": -1,
            "trial_index": 0,
            "trial_index_global": 159
        },
        {
            "rt": 300,
            "trial_type": "single-stim",
            "stimulus": "<div class = decision-left style='background:#98bf21; width:330px;height:230px;'><img class = 'decision-stim' src= 'images/12.png'></img></div><div class = decision-right style='background:#98bf21; width:330px;height:230px;'><img class = 'decision-stim' src= 'images/11.png'></img></div>",
            "trial_count": 16,
            "internal_chunk_id": "0-0.5-16.0-16",
            "time_elapsed": 188524,
            "key_press": 39,
            "type": "decision_first",
            "trial_index": 0,
            "trial_index_global": 160
        },
        {
            "rt": -1,
            "trial_type": "single-stim",
