{
    "AutoApprovalTime": "2015-03-12T20:17:28Z",
    "AssignmentId": "3Z2R0DQ0JHEGE4HJ6HN8LY1Q5UO2EY",
    "WorkerId": "A1BQCRF5Q76YFY",
    "AcceptTime": "2015-03-10T19:44:20Z",
    "HITId": "363A7XIFV4MJYY0GOJ0W20CPME0VAH",
    "Assignment": "",
    "answer": [
        {
            "rt": 31636,
            "trial_type": "text",
            "internal_chunk_id": "0-0",
            "time_elapsed": 31847,
            "key_press": 13,
            "trial_index": 0,
            "trial_index_global": 0
        },
        {
            "rt": -1,
            "trial_type": "single-stim",
            "stimulus": "<div class = centerbox><p class = 'stroop-stim'>+</p></div>",
            "internal_chunk_id": "0-0.1-0",
            "time_elapsed": 33061,
            "key_press": -1,
            "trial_index": 0,
            "trial_index_global": 1
        },
        {
            "rt": 2247,
            "trial_type": "single-stim",
            "stimulus": "<div class = centerbox><p class = stroop-stim style = \"color:green\">GREEN</p></div>",
            "internal_chunk_id": "0-0.1-0",
            "time_elapsed": 35511,
            "key_press": 71,
            "type": "stroop_practice",
            "trial_index": 0,
            "trial_index_global": 2
        },
        {
            "rt": -1,
            "trial_type": "single-stim",
            "stimulus": "",
            "internal_chunk_id": "0-0.1-0",
            "time_elapsed": 35788,
            "key_press": -1,
            "trial_index": 0,
            "trial_index_global": 3
        },
        {
            "rt": -1,
            "trial_type": "single-stim",
            "stimulus": "<div class = centerbox><p class = stroop-stim>correct</p></div>",
            "internal_chunk_id": "0-0.1-0",
            "time_elapsed": 36289,
            "key_press": -1,
            "trial_index": 0,
            "trial_index_global": 4
        },
        {
            "rt": -1,
            "trial_type": "single-stim",
            "stimulus": "",
            "internal_chunk_id": "0-0.1-0",
            "time_elapsed": 36554,
            "key_press": -1,
            "trial_index": 0,
            "trial_index_global": 5
        },
        {
            "rt": -1,
            "trial_type": "single-stim",
            "stimulus": "<div class = centerbox><p class = 'stroop-stim'>+</p></div>",
            "internal_chunk_id": "0-0.1-1",
            "time_elapsed": 36759,
            "key_press": -1,
            "trial_index": 0,
            "trial_index_global": 6
        },
        {
            "rt": 1153,
            "trial_type": "single-stim",
            "stimulus": "<div class = centerbox><p class = stroop-stim style = \"color:blue\">RED</p></div>",
            "internal_chunk_id": "0-0.1-1",
            "time_elapsed": 38084,
            "key_press": 66,
            "type": "stroop_practice",
            "trial_index": 0,
            "trial_index_global": 7
        },
        {
            "rt": -1,
            "trial_type": "single-stim",
            "stimulus": "",
            "internal_chunk_id": "0-0.1-1",
            "time_elapsed": 38339,
            "key_press": -1,
            "trial_index": 0,
            "trial_index_global": 8
        },
        {
            "rt": -1,
            "trial_type": "single-stim",
            "stimulus": "<div class = centerbox><p class = stroop-stim>correct</p></div>",
            "internal_chunk_id": "0-0.1-1",
            "time_elapsed": 38855,
            "key_press": -1,
            "trial_index": 0,
            "trial_index_global": 9
        },
        {
            "rt": -1,
            "trial_type": "single-stim",
            "stimulus": "",
            "internal_chunk_id": "0-0.1-1",
            "time_elapsed": 39106,
            "key_press": -1,
            "trial_index": 0,
            "trial_index_global": 10
        },
        {
            "rt": -1,
            "trial_type": "single-stim",
            "stimulus": "<div class = centerbox><p class = 'stroop-stim'>+</p></div>",
            "internal_chunk_id": "0-0.1-2",
            "time_elapsed": 39309,
            "key_press": -1,
            "trial_index": 0,
            "trial_index_global": 11
        },
        {
            "rt": 1528,
            "trial_type": "single-stim",
            "stimulus": "<div class = centerbox><p class = stroop-stim style = \"color:green\">RED</p></div>",
            "internal_chunk_id": "0-0.1-2",
            "time_elapsed": 41024,
            "key_press": 71,
            "type": "stroop_practice",
            "trial_index": 0,
            "trial_index_global": 12
        },
        {
            "rt": -1,
            "trial_type": "single-stim",
            "stimulus": "",
            "internal_chunk_id": "0-0.1-2",
            "time_elapsed": 41287,
            "key_press": -1,
            "trial_index": 0,
            "trial_index_global": 13
        },
        {
            "rt": -1,
            "trial_type": "single-stim",
            "stimulus": "<div class = centerbox><p class = stroop-stim>correct</p></div>",
            "internal_chunk_id": "0-0.1-2",
            "time_elapsed": 41788,
            "key_press": -1,
            "trial_index": 0,
            "trial_index_global": 14
        },
        {
            "rt": -1,
            "trial_type": "single-stim",
            "stimulus": "",
            "internal_chunk_id": "0-0.1-2",
            "time_elapsed": 42039,
            "key_press": -1,
            "trial_index": 0,
            "trial_index_global": 15
        },
        {
            "rt": -1,
            "trial_type": "single-stim",
            "stimulus": "<div class = centerbox><p class = 'stroop-stim'>+</p></div>",
            "internal_chunk_id": "0-0.1-3",
            "time_elapsed": 42242,
            "key_press": -1,
            "trial_index": 0,
            "trial_index_global": 16
        },
        {
            "rt": 1404,
            "trial_type": "single-stim",
            "stimulus": "<div class = centerbox><p class = stroop-stim style = \"color:red\">RED</p></div>",
            "internal_chunk_id": "0-0.1-3",
            "time_elapsed": 43817,
            "key_press": 82,
            "type": "stroop_practice",
            "trial_index": 0,
            "trial_index_global": 17
        },
        {
            "rt": -1,
            "trial_type": "single-stim",
            "stimulus": "",
            "internal_chunk_id": "0-0.1-3",
            "time_elapsed": 44089,
            "key_press": -1,
            "trial_index": 0,
            "trial_index_global": 18
        },
        {
            "rt": -1,
            "trial_type": "single-stim",
            "stimulus": "<div class = centerbox><p class = stroop-stim>correct</p></div>",
            "internal_chunk_id": "0-0.1-3",
            "time_elapsed": 44589,
            "key_press": -1,
            "trial_index": 0,
            "trial_index_global": 19
        },
        {
            "rt": -1,
            "trial_type": "single-stim",
            "stimulus": "",
            "internal_chunk_id": "0-0.1-3",
            "time_elapsed": 44855,
            "key_press": -1,
            "trial_index": 0,
            "trial_index_global": 20
        },
        {
            "rt": -1,
            "trial_type": "single-stim",
            "stimulus": "<div class = centerbox><p class = 'stroop-stim'>+</p></div>",
            "internal_chunk_id": "0-0.1-4",
            "time_elapsed": 45059,
            "key_press": -1,
            "trial_index": 0,
            "trial_index_global": 21
        },
        {
            "rt": 934,
            "trial_type": "single-stim",
            "stimulus": "<div class = centerbox><p class = stroop-stim style = \"color:blue\">BLUE</p></div>",
            "internal_chunk_id": "0-0.1-4",
            "time_elapsed": 46212,
            "key_press": 66,
            "type": "stroop_practice",
            "trial_index": 0,
            "trial_index_global": 22
        },
        {
            "rt": -1,
            "trial_type": "single-stim",
            "stimulus": "",
            "internal_chunk_id": "0-0.1-4",
            "time_elapsed": 46472,
            "key_press": -1,
            "trial_index": 0,
            "trial_index_global": 23
        },
        {
            "rt": -1,
            "trial_type": "single-stim",
            "stimulus": "<div class = centerbox><p class = stroop-stim>correct</p></div>",
            "internal_chunk_id": "0-0.1-4",
            "time_elapsed": 46987,
            "key_press": -1,
            "trial_index": 0,
            "trial_index_global": 24
        },
        {
            "rt": -1,
            "trial_type": "single-stim",
            "stimulus": "",
            "internal_chunk_id": "0-0.1-4",
            "time_elapsed": 47239,
            "key_press": -1,
            "trial_index": 0,
            "trial_index_global": 25
        },
        {
            "rt": -1,
            "trial_type": "single-stim",
            "stimulus": "<div class = centerbox><p class = 'stroop-stim'>+</p></div>",
            "internal_chunk_id": "0-0.1-5",
            "time_elapsed": 47441,
            "key_press": -1,
            "trial_index": 0,
            "trial_index_global": 26
        },
        {
            "rt": 841,
            "trial_type": "single-stim",
            "stimulus": "<div class = centerbox><p class = stroop-stim style = \"color:green\">BLUE</p></div>",
            "internal_chunk_id": "0-0.1-5",
            "time_elapsed": 48423,
            "key_press": 71,
            "type": "stroop_practice",
            "trial_index": 0,
            "trial_index_global": 27
        },
        {
            "rt": -1,
            "trial_type": "single-stim",
            "stimulus": "",
            "internal_chunk_id": "0-0.1-5",
            "time_elapsed": 48674,
            "key_press": -1,
            "trial_index": 0,
            "trial_index_global": 28
        },
        {
            "rt": -1,
            "trial_type": "single-stim",
            "stimulus": "<div class = centerbox><p class = stroop-stim>correct</p></div>",
            "internal_chunk_id": "0-0.1-5",
            "time_elapsed": 49188,
            "key_press": -1,
            "trial_index": 0,
            "trial_index_global": 29
        },
        {
            "rt": -1,
            "trial_type": "single-stim",
            "stimulus": "",
            "internal_chunk_id": "0-0.1-5",
            "time_elapsed": 49439,
            "key_press": -1,
            "trial_index": 0,
            "trial_index_global": 30
        },
        {
            "rt": -1,
            "trial_type": "single-stim",
            "stimulus": "<div class = centerbox><p class = 'stroop-stim'>+</p></div>",
            "internal_chunk_id": "0-0.1-6",
            "time_elapsed": 49642,
            "key_press": -1,
            "trial_index": 0,
            "trial_index_global": 31
        },
        {
            "rt": 809,
            "trial_type": "single-stim",
            "stimulus": "<div class = centerbox><p class = stroop-stim style = \"color:blue\">BLUE</p></div>",
            "internal_chunk_id": "0-0.1-6",
            "time_elapsed": 50592,
            "key_press": 66,
            "type": "stroop_practice",
            "trial_index": 0,
            "trial_index_global": 32
        },
        {
            "rt": -1,
            "trial_type": "single-stim",
            "stimulus": "",
            "internal_chunk_id": "0-0.1-6",
            "time_elapsed": 50848,
            "key_press": -1,
            "trial_index": 0,
            "trial_index_global": 33
        },
        {
            "rt": -1,
            "trial_type": "single-stim",
            "stimulus": "<div class = centerbox><p class = stroop-stim>correct</p></div>",
            "internal_chunk_id": "0-0.1-6",
            "time_elapsed": 51354,
            "key_press": -1,
            "trial_index": 0,
            "trial_index_global": 34
        },
        {
            "rt": -1,
            "trial_type": "single-stim",
            "stimulus": "",
            "internal_chunk_id": "0-0.1-6",
            "time_elapsed": 51605,
            "key_press": -1,
            "trial_index": 0,
            "trial_index_global": 35
        },
        {
            "rt": -1,
            "trial_type": "single-stim",
            "stimulus": "<div class = centerbox><p class = 'stroop-stim'>+</p></div>",
            "internal_chunk_id": "0-0.1-7",
            "time_elapsed": 51808,
            "key_press": -1,
            "trial_index": 0,
            "trial_index_global": 36
        },
        {
            "rt": 684,
            "trial_type": "single-stim",
            "stimulus": "<div class = centerbox><p class = stroop-stim style = \"color:blue\">BLUE</p></div>",
            "internal_chunk_id": "0-0.1-7",
            "time_elapsed": 52633,
            "key_press": 66,
            "type": "stroop_practice",
            "trial_index": 0,
            "trial_index_global": 37
        },
        {
            "rt": -1,
            "trial_type": "single-stim",
            "stimulus": "",
            "internal_chunk_id": "0-0.1-7",
            "time_elapsed": 52889,
            "key_press": -1,
            "trial_index": 0,
            "trial_index_global": 38
        },
        {
            "rt": -1,
            "trial_type": "single-stim",
            "stimulus": "<div class = centerbox><p class = stroop-stim>correct</p></div>",
            "internal_chunk_id": "0-0.1-7",
            "time_elapsed": 53404,
            "key_press": -1,
            "trial_index": 0,
            "trial_index_global": 39
        },
        {
            "rt": -1,
            "trial_type": "single-stim",
            "stimulus": "",
            "internal_chunk_id": "0-0.1-7",
            "time_elapsed": 53654,
            "key_press": -1,
            "trial_index": 0,
            "trial_index_global": 40
        },
        {
            "rt": -1,
            "trial_type": "single-stim",
            "stimulus": "<div class = centerbox><p class = 'stroop-stim'>+</p></div>",
            "internal_chunk_id": "0-0.1-8",
            "time_elapsed": 53857,
            "key_press": -1,
            "trial_index": 0,
            "trial_index_global": 41
        },
        {
            "rt": 513,
            "trial_type": "single-stim",
            "stimulus": "<div class = centerbox><p class = stroop-stim style = \"color:red\">RED</p></div>",
            "internal_chunk_id": "0-0.1-8",
            "time_elapsed": 54573,
            "key_press": 82,
            "type": "stroop_practice",
            "trial_index": 0,
            "trial_index_global": 42
        },
        {
            "rt": -1,
            "trial_type": "single-stim",
            "stimulus": "",
            "internal_chunk_id": "0-0.1-8",
            "time_elapsed": 54855,
            "key_press": -1,
            "trial_index": 0,
            "trial_index_global": 43
        },
        {
            "rt": -1,
            "trial_type": "single-stim",
            "stimulus": "<div class = centerbox><p class = stroop-stim>correct</p></div>",
            "internal_chunk_id": "0-0.1-8",
            "time_elapsed": 55371,
            "key_press": -1,
            "trial_index": 0,
            "trial_index_global": 44
        },
        {
            "rt": -1,
            "trial_type": "single-stim",
            "stimulus": "",
            "internal_chunk_id": "0-0.1-8",
            "time_elapsed": 55638,
            "key_press": -1,
            "trial_index": 0,
            "trial_index_global": 45
        },
        {
            "rt": -1,
            "trial_type": "single-stim",
            "stimulus": "<div class = centerbox><p class = 'stroop-stim'>+</p></div>",
            "internal_chunk_id": "0-0.1-9",
            "time_elapsed": 55841,
            "key_press": -1,
            "trial_index": 0,
            "trial_index_global": 46
        },
        {
            "rt": 997,
            "trial_type": "single-stim",
            "stimulus": "<div class = centerbox><p class = stroop-stim style = \"color:red\">GREEN</p></div>",
            "internal_chunk_id": "0-0.1-9",
            "time_elapsed": 56963,
            "key_press": 82,
            "type": "stroop_practice",
            "trial_index": 0,
            "trial_index_global": 47
        },
        {
            "rt": -1,
            "trial_type": "single-stim",
            "stimulus": "",
            "internal_chunk_id": "0-0.1-9",
            "time_elapsed": 57222,
            "key_press": -1,
            "trial_index": 0,
            "trial_index_global": 48
        },
        {
            "rt": -1,
            "trial_type": "single-stim",
            "stimulus": "<div class = centerbox><p class = stroop-stim>correct</p></div>",
            "internal_chunk_id": "0-0.1-9",
            "time_elapsed": 57722,
            "key_press": -1,
            "trial_index": 0,
            "trial_index_global": 49
        },
        {
            "rt": -1,
            "trial_type": "single-stim",
            "stimulus": "",
            "internal_chunk_id": "0-0.1-9",
            "time_elapsed": 57987,
            "key_press": -1,
            "trial_index": 0,
            "trial_index_global": 50
        },
        {
            "rt": -1,
            "trial_type": "single-stim",
            "stimulus": "<div class = centerbox><p class = 'stroop-stim'>+</p></div>",
            "internal_chunk_id": "0-0.1-10",
            "time_elapsed": 58191,
            "key_press": -1,
            "trial_index": 0,
            "trial_index_global": 51
        },
        {
            "rt": 795,
            "trial_type": "single-stim",
            "stimulus": "<div class = centerbox><p class = stroop-stim style = \"color:blue\">GREEN</p></div>",
            "internal_chunk_id": "0-0.1-10",
            "time_elapsed": 59096,
            "key_press": 66,
            "type": "stroop_practice",
            "trial_index": 0,
            "trial_index_global": 52
        },
        {
            "rt": -1,
            "trial_type": "single-stim",
            "stimulus": "",
            "internal_chunk_id": "0-0.1-10",
            "time_elapsed": 59388,
            "key_press": -1,
            "trial_index": 0,
            "trial_index_global": 53
        },
        {
            "rt": -1,
            "trial_type": "single-stim",
            "stimulus": "<div class = centerbox><p class = stroop-stim>correct</p></div>",
            "internal_chunk_id": "0-0.1-10",
            "time_elapsed": 59903,
            "key_press": -1,
            "trial_index": 0,
            "trial_index_global": 54
        },
        {
            "rt": -1,
            "trial_type": "single-stim",
            "stimulus": "",
            "internal_chunk_id": "0-0.1-10",
            "time_elapsed": 60154,
            "key_press": -1,
            "trial_index": 0,
            "trial_index_global": 55
        },
        {
            "rt": -1,
            "trial_type": "single-stim",
            "stimulus": "<div class = centerbox><p class = 'stroop-stim'>+</p></div>",
            "internal_chunk_id": "0-0.1-11",
            "time_elapsed": 60357,
            "key_press": -1,
            "trial_index": 0,
            "trial_index_global": 56
        },
        {
            "rt": 654,
            "trial_type": "single-stim",
            "stimulus": "<div class = centerbox><p class = stroop-stim style = \"color:green\">GREEN</p></div>",
            "internal_chunk_id": "0-0.1-11",
            "time_elapsed": 61169,
            "key_press": 71,
            "type": "stroop_practice",
            "trial_index": 0,
            "trial_index_global": 57
        },
        {
            "rt": -1,
            "trial_type": "single-stim",
            "stimulus": "",
            "internal_chunk_id": "0-0.1-11",
            "time_elapsed": 61421,
            "key_press": -1,
            "trial_index": 0,
            "trial_index_global": 58
        },
        {
            "rt": -1,
            "trial_type": "single-stim",
            "stimulus": "<div class = centerbox><p class = stroop-stim>correct</p></div>",
            "internal_chunk_id": "0-0.1-11",
            "time_elapsed": 61923,
            "key_press": -1,
            "trial_index": 0,
            "trial_index_global": 59
        },
        {
            "rt": -1,
            "trial_type": "single-stim",
            "stimulus": "",
            "internal_chunk_id": "0-0.1-11",
            "time_elapsed": 62174,
            "key_press": -1,
            "trial_index": 0,
            "trial_index_global": 60
        },
        {
            "rt": -1,
            "trial_type": "single-stim",
            "stimulus": "<div class = centerbox><p class = 'stroop-stim'>+</p></div>",
            "internal_chunk_id": "0-0.1-12",
            "time_elapsed": 62375,
            "key_press": -1,
            "trial_index": 0,
            "trial_index_global": 61
        },
        {
            "rt": 700,
            "trial_type": "single-stim",
            "stimulus": "<div class = centerbox><p class = stroop-stim style = \"color:blue\">GREEN</p></div>",
            "internal_chunk_id": "0-0.1-12",
            "time_elapsed": 63265,
            "key_press": 66,
            "type": "stroop_practice",
            "trial_index": 0,
            "trial_index_global": 62
        },
        {
            "rt": -1,
            "trial_type": "single-stim",
            "stimulus": "",
            "internal_chunk_id": "0-0.1-12",
            "time_elapsed": 63521,
            "key_press": -1,
            "trial_index": 0,
            "trial_index_global": 63
        },
        {
            "rt": -1,
            "trial_type": "single-stim",
            "stimulus": "<div class = centerbox><p class = stroop-stim>correct</p></div>",
            "internal_chunk_id": "0-0.1-12",
            "time_elapsed": 64036,
            "key_press": -1,
            "trial_index": 0,
            "trial_index_global": 64
        },
        {
            "rt": -1,
            "trial_type": "single-stim",
            "stimulus": "",
            "internal_chunk_id": "0-0.1-12",
            "time_elapsed": 64288,
            "key_press": -1,
            "trial_index": 0,
            "trial_index_global": 65
        },
        {
            "rt": -1,
            "trial_type": "single-stim",
            "stimulus": "<div class = centerbox><p class = 'stroop-stim'>+</p></div>",
            "internal_chunk_id": "0-0.1-13",
            "time_elapsed": 64491,
            "key_press": -1,
            "trial_index": 0,
            "trial_index_global": 66
        },
        {
            "rt": 497,
            "trial_type": "single-stim",
            "stimulus": "<div class = centerbox><p class = stroop-stim style = \"color:green\">GREEN</p></div>",
            "internal_chunk_id": "0-0.1-13",
            "time_elapsed": 65113,
            "key_press": 71,
            "type": "stroop_practice",
            "trial_index": 0,
            "trial_index_global": 67
        },
        {
            "rt": -1,
            "trial_type": "single-stim",
            "stimulus": "",
            "internal_chunk_id": "0-0.1-13",
            "time_elapsed": 65372,
            "key_press": -1,
            "trial_index": 0,
            "trial_index_global": 68
        },
        {
            "rt": -1,
            "trial_type": "single-stim",
            "stimulus": "<div class = centerbox><p class = stroop-stim>correct</p></div>",
            "internal_chunk_id": "0-0.1-13",
            "time_elapsed": 65887,
            "key_press": -1,
            "trial_index": 0,
            "trial_index_global": 69
        },
        {
            "rt": -1,
            "trial_type": "single-stim",
            "stimulus": "",
            "internal_chunk_id": "0-0.1-13",
            "time_elapsed": 66138,
            "key_press": -1,
            "trial_index": 0,
            "trial_index_global": 70
        },
        {
            "rt": -1,
            "trial_type": "single-stim",
            "stimulus": "<div class = centerbox><p class = 'stroop-stim'>+</p></div>",
            "internal_chunk_id": "0-0.1-14",
            "time_elapsed": 66341,
            "key_press": -1,
            "trial_index": 0,
            "trial_index_global": 71
        },
        {
            "rt": 669,
            "trial_type": "single-stim",
            "stimulus": "<div class = centerbox><p class = stroop-stim style = \"color:green\">BLUE</p></div>",
            "internal_chunk_id": "0-0.1-14",
            "time_elapsed": 67135,
            "key_press": 71,
            "type": "stroop_practice",
            "trial_index": 0,
            "trial_index_global": 72
        },
        {
            "rt": -1,
            "trial_type": "single-stim",
            "stimulus": "",
            "internal_chunk_id": "0-0.1-14",
            "time_elapsed": 67406,
            "key_press": -1,
            "trial_index": 0,
            "trial_index_global": 73
        },
        {
            "rt": -1,
            "trial_type": "single-stim",
            "stimulus": "<div class = centerbox><p class = stroop-stim>correct</p></div>",
            "internal_chunk_id": "0-0.1-14",
            "time_elapsed": 67920,
            "key_press": -1,
            "trial_index": 0,
            "trial_index_global": 74
        },
        {
            "rt": -1,
            "trial_type": "single-stim",
            "stimulus": "",
            "internal_chunk_id": "0-0.1-14",
            "time_elapsed": 68171,
            "key_press": -1,
            "trial_index": 0,
            "trial_index_global": 75
        },
        {
            "rt": -1,
            "trial_type": "single-stim",
            "stimulus": "<div class = centerbox><p class = 'stroop-stim'>+</p></div>",
            "internal_chunk_id": "0-0.1-15",
            "time_elapsed": 68374,
            "key_press": -1,
            "trial_index": 0,
            "trial_index_global": 76
        },
        {
            "rt": 778,
            "trial_type": "single-stim",
            "stimulus": "<div class = centerbox><p class = stroop-stim style = \"color:blue\">RED</p></div>",
            "internal_chunk_id": "0-0.1-15",
            "time_elapsed": 69262,
            "key_press": 66,
            "type": "stroop_practice",
            "trial_index": 0,
            "trial_index_global": 77
        },
        {
            "rt": -1,
            "trial_type": "single-stim",
            "stimulus": "",
            "internal_chunk_id": "0-0.1-15",
            "time_elapsed": 69538,
            "key_press": -1,
            "trial_index": 0,
            "trial_index_global": 78
        },
        {
            "rt": -1,
            "trial_type": "single-stim",
            "stimulus": "<div class = centerbox><p class = stroop-stim>correct</p></div>",
            "internal_chunk_id": "0-0.1-15",
            "time_elapsed": 70054,
            "key_press": -1,
            "trial_index": 0,
            "trial_index_global": 79
        },
        {
            "rt": -1,
            "trial_type": "single-stim",
            "stimulus": "",
            "internal_chunk_id": "0-0.1-15",
            "time_elapsed": 70305,
            "key_press": -1,
            "trial_index": 0,
            "trial_index_global": 80
        },
        {
            "rt": -1,
            "trial_type": "single-stim",
            "stimulus": "<div class = centerbox><p class = 'stroop-stim'>+</p></div>",
            "internal_chunk_id": "0-0.1-16",
            "time_elapsed": 70508,
            "key_press": -1,
            "trial_index": 0,
            "trial_index_global": 81
        },
        {
            "rt": 466,
            "trial_type": "single-stim",
            "stimulus": "<div class = centerbox><p class = stroop-stim style = \"color:blue\">BLUE</p></div>",
            "internal_chunk_id": "0-0.1-16",
            "time_elapsed": 71114,
            "key_press": 66,
            "type": "stroop_practice",
            "trial_index": 0,
            "trial_index_global": 82
        },
        {
            "rt": -1,
            "trial_type": "single-stim",
            "stimulus": "",
            "internal_chunk_id": "0-0.1-16",
            "time_elapsed": 71370,
            "key_press": -1,
            "trial_index": 0,
            "trial_index_global": 83
        },
        {
            "rt": -1,
            "trial_type": "single-stim",
            "stimulus": "<div class = centerbox><p class = stroop-stim>correct</p></div>",
            "internal_chunk_id": "0-0.1-16",
            "time_elapsed": 71887,
            "key_press": -1,
            "trial_index": 0,
            "trial_index_global": 84
        },
        {
            "rt": -1,
            "trial_type": "single-stim",
            "stimulus": "",
            "internal_chunk_id": "0-0.1-16",
            "time_elapsed": 72138,
            "key_press": -1,
            "trial_index": 0,
            "trial_index_global": 85
        },
        {
            "rt": -1,
            "trial_type": "single-stim",
            "stimulus": "<div class = centerbox><p class = 'stroop-stim'>+</p></div>",
            "internal_chunk_id": "0-0.1-17",
            "time_elapsed": 72344,
            "key_press": -1,
            "trial_index": 0,
            "trial_index_global": 86
        },
        {
            "rt": 603,
            "trial_type": "single-stim",
            "stimulus": "<div class = centerbox><p class = stroop-stim style = \"color:red\">RED</p></div>",
            "internal_chunk_id": "0-0.1-17",
            "time_elapsed": 73135,
            "key_press": 82,
            "type": "stroop_practice",
            "trial_index": 0,
            "trial_index_global": 87
        },
        {
            "rt": -1,
            "trial_type": "single-stim",
            "stimulus": "",
            "internal_chunk_id": "0-0.1-17",
            "time_elapsed": 73388,
            "key_press": -1,
            "trial_index": 0,
            "trial_index_global": 88
        },
        {
            "rt": -1,
            "trial_type": "single-stim",
            "stimulus": "<div class = centerbox><p class = stroop-stim>correct</p></div>",
            "internal_chunk_id": "0-0.1-17",
            "time_elapsed": 73890,
            "key_press": -1,
            "trial_index": 0,
            "trial_index_global": 89
        },
        {
            "rt": -1,
            "trial_type": "single-stim",
            "stimulus": "",
            "internal_chunk_id": "0-0.1-17",
            "time_elapsed": 74153,
            "key_press": -1,
            "trial_index": 0,
            "trial_index_global": 90
        },
        {
            "rt": -1,
            "trial_type": "single-stim",
            "stimulus": "<div class = centerbox><p class = 'stroop-stim'>+</p></div>",
            "internal_chunk_id": "0-0.1-18",
            "time_elapsed": 74491,
            "key_press": -1,
            "trial_index": 0,
            "trial_index_global": 91
        },
        {
            "rt": 499,
            "trial_type": "single-stim",
            "stimulus": "<div class = centerbox><p class = stroop-stim style = \"color:red\">BLUE</p></div>",
            "internal_chunk_id": "0-0.1-18",
            "time_elapsed": 75162,
            "key_press": 82,
            "type": "stroop_practice",
            "trial_index": 0,
            "trial_index_global": 92
        },
        {
            "rt": -1,
            "trial_type": "single-stim",
            "stimulus": "",
            "internal_chunk_id": "0-0.1-18",
            "time_elapsed": 75437,
            "key_press": -1,
            "trial_index": 0,
            "trial_index_global": 93
        },
        {
            "rt": -1,
            "trial_type": "single-stim",
            "stimulus": "<div class = centerbox><p class = stroop-stim>correct</p></div>",
            "internal_chunk_id": "0-0.1-18",
            "time_elapsed": 75938,
            "key_press": -1,
            "trial_index": 0,
            "trial_index_global": 94
        },
        {
            "rt": -1,
            "trial_type": "single-stim",
            "stimulus": "",
            "internal_chunk_id": "0-0.1-18",
            "time_elapsed": 76203,
            "key_press": -1,
            "trial_index": 0,
            "trial_index_global": 95
        },
        {
            "rt": -1,
            "trial_type": "single-stim",
            "stimulus": "<div class = centerbox><p class = 'stroop-stim'>+</p></div>",
            "internal_chunk_id": "0-0.1-19",
            "time_elapsed": 76407,
            "key_press": -1,
            "trial_index": 0,
            "trial_index_global": 96
        },
        {
            "rt": 483,
            "trial_type": "single-stim",
            "stimulus": "<div class = centerbox><p class = stroop-stim style = \"color:red\">BLUE</p></div>",
            "internal_chunk_id": "0-0.1-19",
            "time_elapsed": 77046,
            "key_press": 82,
            "type": "stroop_practice",
            "trial_index": 0,
            "trial_index_global": 97
        },
        {
            "rt": -1,
            "trial_type": "single-stim",
            "stimulus": "",
            "internal_chunk_id": "0-0.1-19",
            "time_elapsed": 77304,
            "key_press": -1,
            "trial_index": 0,
            "trial_index_global": 98
        },
        {
            "rt": -1,
            "trial_type": "single-stim",
            "stimulus": "<div class = centerbox><p class = stroop-stim>correct</p></div>",
            "internal_chunk_id": "0-0.1-19",
            "time_elapsed": 77819,
            "key_press": -1,
            "trial_index": 0,
            "trial_index_global": 99
        },
        {
            "rt": -1,
            "trial_type": "single-stim",
            "stimulus": "",
            "internal_chunk_id": "0-0.1-19",
            "time_elapsed": 78070,
            "key_press": -1,
            "trial_index": 0,
            "trial_index_global": 100
        },
        {
            "rt": -1,
            "trial_type": "single-stim",
            "stimulus": "<div class = centerbox><p class = 'stroop-stim'>+</p></div>",
            "internal_chunk_id": "0-0.1-20",
            "time_elapsed": 78274,
            "key_press": -1,
            "trial_index": 0,
            "trial_index_global": 101
        },
        {
            "rt": 481,
            "trial_type": "single-stim",
            "stimulus": "<div class = centerbox><p class = stroop-stim style = \"color:red\">RED</p></div>",
            "internal_chunk_id": "0-0.1-20",
            "time_elapsed": 78880,
            "key_press": 82,
            "type": "stroop_practice",
            "trial_index": 0,
            "trial_index_global": 102
        },
        {
            "rt": -1,
            "trial_type": "single-stim",
            "stimulus": "",
            "internal_chunk_id": "0-0.1-20",
            "time_elapsed": 79136,
            "key_press": -1,
            "trial_index": 0,
            "trial_index_global": 103
        },
        {
            "rt": -1,
            "trial_type": "single-stim",
            "stimulus": "<div class = centerbox><p class = stroop-stim>correct</p></div>",
            "internal_chunk_id": "0-0.1-20",
            "time_elapsed": 79638,
            "key_press": -1,
            "trial_index": 0,
            "trial_index_global": 104
        },
        {
            "rt": -1,
            "trial_type": "single-stim",
            "stimulus": "",
            "internal_chunk_id": "0-0.1-20",
            "time_elapsed": 79903,
            "key_press": -1,
            "trial_index": 0,
            "trial_index_global": 105
        },
        {
            "rt": -1,
            "trial_type": "single-stim",
            "stimulus": "<div class = centerbox><p class = 'stroop-stim'>+</p></div>",
            "internal_chunk_id": "0-0.1-21",
            "time_elapsed": 80107,
            "key_press": -1,
            "trial_index": 0,
            "trial_index_global": 106
        },
        {
            "rt": 528,
            "trial_type": "single-stim",
            "stimulus": "<div class = centerbox><p class = stroop-stim style = \"color:green\">RED</p></div>",
            "internal_chunk_id": "0-0.1-21",
            "time_elapsed": 80807,
            "key_press": 71,
            "type": "stroop_practice",
            "trial_index": 0,
            "trial_index_global": 107
        },
        {
            "rt": -1,
            "trial_type": "single-stim",
            "stimulus": "",
            "internal_chunk_id": "0-0.1-21",
            "time_elapsed": 81069,
            "key_press": -1,
            "trial_index": 0,
            "trial_index_global": 108
        },
        {
            "rt": -1,
            "trial_type": "single-stim",
            "stimulus": "<div class = centerbox><p class = stroop-stim>correct</p></div>",
            "internal_chunk_id": "0-0.1-21",
            "time_elapsed": 81570,
            "key_press": -1,
            "trial_index": 0,
            "trial_index_global": 109
        },
        {
            "rt": -1,
            "trial_type": "single-stim",
            "stimulus": "",
            "internal_chunk_id": "0-0.1-21",
            "time_elapsed": 81820,
            "key_press": -1,
            "trial_index": 0,
            "trial_index_global": 110
        },
        {
            "rt": -1,
            "trial_type": "single-stim",
            "stimulus": "<div class = centerbox><p class = 'stroop-stim'>+</p></div>",
            "internal_chunk_id": "0-0.1-22",
            "time_elapsed": 82024,
            "key_press": -1,
            "trial_index": 0,
            "trial_index_global": 111
        },
        {
            "rt": 325,
            "trial_type": "single-stim",
            "stimulus": "<div class = centerbox><p class = stroop-stim style = \"color:green\">GREEN</p></div>",
            "internal_chunk_id": "0-0.1-22",
            "time_elapsed": 82505,
            "key_press": 71,
            "type": "stroop_practice",
            "trial_index": 0,
            "trial_index_global": 112
        },
        {
            "rt": -1,
            "trial_type": "single-stim",
            "stimulus": "",
            "internal_chunk_id": "0-0.1-22",
            "time_elapsed": 82786,
            "key_press": -1,
            "trial_index": 0,
            "trial_index_global": 113
        },
        {
            "rt": -1,
            "trial_type": "single-stim",
            "stimulus": "<div class = centerbox><p class = stroop-stim>correct</p></div>",
            "internal_chunk_id": "0-0.1-22",
            "time_elapsed": 83287,
            "key_press": -1,
            "trial_index": 0,
            "trial_index_global": 114
        },
        {
            "rt": -1,
            "trial_type": "single-stim",
            "stimulus": "",
            "internal_chunk_id": "0-0.1-22",
            "time_elapsed": 83537,
            "key_press": -1,
            "trial_index": 0,
            "trial_index_global": 115
        },
        {
            "rt": -1,
            "trial_type": "single-stim",
            "stimulus": "<div class = centerbox><p class = 'stroop-stim'>+</p></div>",
            "internal_chunk_id": "0-0.1-23",
            "time_elapsed": 83740,
            "key_press": -1,
            "trial_index": 0,
            "trial_index_global": 116
        },
        {
            "rt": 513,
            "trial_type": "single-stim",
            "stimulus": "<div class = centerbox><p class = stroop-stim style = \"color:red\">GREEN</p></div>",
            "internal_chunk_id": "0-0.1-23",
            "time_elapsed": 84394,
            "key_press": 82,
            "type": "stroop_practice",
            "trial_index": 0,
            "trial_index_global": 117
        },
        {
            "rt": -1,
            "trial_type": "single-stim",
            "stimulus": "",
            "internal_chunk_id": "0-0.1-23",
            "time_elapsed": 84652,
            "key_press": -1,
            "trial_index": 0,
            "trial_index_global": 118
        },
        {
            "rt": -1,
            "trial_type": "single-stim",
            "stimulus": "<div class = centerbox><p class = stroop-stim>correct</p></div>",
            "internal_chunk_id": "0-0.1-23",
            "time_elapsed": 85155,
            "key_press": -1,
            "trial_index": 0,
            "trial_index_global": 119
        },
        {
            "rt": -1,
            "trial_type": "single-stim",
            "stimulus": "",
            "internal_chunk_id": "0-0.1-23",
            "time_elapsed": 85407,
            "key_press": -1,
            "trial_index": 0,
            "trial_index_global": 120
        },
        {
            "rt": 5489,
            "trial_type": "text",
            "internal_chunk_id": "0-0",
            "time_elapsed": 91072,
            "key_press": 13,
            "trial_index": 0,
            "trial_index_global": 121
        },
        {
            "rt": -1,
            "trial_type": "single-stim",
            "stimulus": "<div class = centerbox><p class = 'stroop-stim'>+</p></div>",
            "internal_chunk_id": "0-0.3-0",
            "time_elapsed": 92283,
            "key_press": -1,
            "trial_index": 0,
            "trial_index_global": 122
        },
        {
            "rt": 826,
            "trial_type": "single-stim",
            "stimulus": "<div class = centerbox><p class = stroop-stim style = \"color:blue\">BLUE</p></div>",
            "internal_chunk_id": "0-0.3-0",
            "time_elapsed": 93219,
            "key_press": 66,
            "type": "stroop_frequent",
            "trial_index": 0,
            "trial_index_global": 123
        },
        {
            "rt": -1,
            "trial_type": "single-stim",
            "stimulus": "",
            "internal_chunk_id": "0-0.3-0",
            "time_elapsed": 93478,
            "key_press": -1,
            "trial_index": 0,
            "trial_index_global": 124
        },
        {
            "rt": -1,
            "trial_type": "single-stim",
            "stimulus": "<div class = centerbox><p class = 'stroop-stim'>+</p></div>",
            "internal_chunk_id": "0-0.3-1",
            "time_elapsed": 93683,
            "key_press": -1,
            "trial_index": 0,
            "trial_index_global": 125
        },
        {
            "rt": 559,
            "trial_type": "single-stim",
            "stimulus": "<div class = centerbox><p class = stroop-stim style = \"color:blue\">GREEN</p></div>",
            "internal_chunk_id": "0-0.3-1",
            "time_elapsed": 94351,
            "key_press": 66,
            "type": "stroop_frequent",
            "trial_index": 0,
            "trial_index_global": 126
        },
        {
            "rt": -1,
            "trial_type": "single-stim",
            "stimulus": "",
            "internal_chunk_id": "0-0.3-1",
            "time_elapsed": 94612,
            "key_press": -1,
            "trial_index": 0,
            "trial_index_global": 127
        },
        {
            "rt": -1,
            "trial_type": "single-stim",
            "stimulus": "<div class = centerbox><p class = 'stroop-stim'>+</p></div>",
            "internal_chunk_id": "0-0.3-2",
            "time_elapsed": 94816,
            "key_press": -1,
            "trial_index": 0,
            "trial_index_global": 128
        },
        {
            "rt": 545,
            "trial_type": "single-stim",
            "stimulus": "<div class = centerbox><p class = stroop-stim style = \"color:blue\">RED</p></div>",
            "internal_chunk_id": "0-0.3-2",
            "time_elapsed": 95517,
            "key_press": 66,
            "type": "stroop_frequent",
            "trial_index": 0,
            "trial_index_global": 129
        },
        {
            "rt": -1,
            "trial_type": "single-stim",
            "stimulus": "",
            "internal_chunk_id": "0-0.3-2",
            "time_elapsed": 95770,
            "key_press": -1,
            "trial_index": 0,
            "trial_index_global": 130
        },
        {
            "rt": -1,
            "trial_type": "single-stim",
            "stimulus": "<div class = centerbox><p class = 'stroop-stim'>+</p></div>",
            "internal_chunk_id": "0-0.3-3",
            "time_elapsed": 95981,
            "key_press": -1,
            "trial_index": 0,
            "trial_index_global": 131
        },
        {
            "rt": 733,
            "trial_type": "single-stim",
            "stimulus": "<div class = centerbox><p class = stroop-stim style = \"color:red\">BLUE</p></div>",
            "internal_chunk_id": "0-0.3-3",
            "time_elapsed": 96854,
            "key_press": 82,
            "type": "stroop_frequent",
            "trial_index": 0,
            "trial_index_global": 132
        },
        {
            "rt": -1,
            "trial_type": "single-stim",
            "stimulus": "",
            "internal_chunk_id": "0-0.3-3",
            "time_elapsed": 97111,
            "key_press": -1,
            "trial_index": 0,
            "trial_index_global": 133
        },
        {
            "rt": -1,
            "trial_type": "single-stim",
            "stimulus": "<div class = centerbox><p class = 'stroop-stim'>+</p></div>",
            "internal_chunk_id": "0-0.3-4",
            "time_elapsed": 97316,
            "key_press": -1,
            "trial_index": 0,
            "trial_index_global": 134
        },
        {
            "rt": 374,
            "trial_type": "single-stim",
            "stimulus": "<div class = centerbox><p class = stroop-stim style = \"color:red\">RED</p></div>",
            "internal_chunk_id": "0-0.3-4",
            "time_elapsed": 97847,
            "key_press": 82,
            "type": "stroop_frequent",
            "trial_index": 0,
            "trial_index_global": 135
        },
        {
            "rt": -1,
            "trial_type": "single-stim",
            "stimulus": "",
            "internal_chunk_id": "0-0.3-4",
            "time_elapsed": 98111,
            "key_press": -1,
            "trial_index": 0,
            "trial_index_global": 136
        },
        {
            "rt": -1,
            "trial_type": "single-stim",
            "stimulus": "<div class = centerbox><p class = 'stroop-stim'>+</p></div>",
            "internal_chunk_id": "0-0.3-5",
            "time_elapsed": 98316,
            "key_press": -1,
            "trial_index": 0,
            "trial_index_global": 137
        },
        {
            "rt": 654,
            "trial_type": "single-stim",
            "stimulus": "<div class = centerbox><p class = stroop-stim style = \"color:green\">BLUE</p></div>",
            "internal_chunk_id": "0-0.3-5",
            "time_elapsed": 99063,
            "key_press": 66,
            "type": "stroop_frequent",
            "trial_index": 0,
            "trial_index_global": 138
        },
        {
            "rt": -1,
            "trial_type": "single-stim",
            "stimulus": "",
            "internal_chunk_id": "0-0.3-5",
            "time_elapsed": 99318,
            "key_press": -1,
            "trial_index": 0,
            "trial_index_global": 139
        },
        {
            "rt": -1,
            "trial_type": "single-stim",
            "stimulus": "<div class = centerbox><p class = 'stroop-stim'>+</p></div>",
            "internal_chunk_id": "0-0.3-6",
            "time_elapsed": 99533,
            "key_press": -1,
            "trial_index": 0,
            "trial_index_global": 140
        },
        {
            "rt": 716,
            "trial_type": "single-stim",
            "stimulus": "<div class = centerbox><p class = stroop-stim style = \"color:green\">BLUE</p></div>",
            "internal_chunk_id": "0-0.3-6",
            "time_elapsed": 100374,
            "key_press": 71,
            "type": "stroop_frequent",
            "trial_index": 0,
            "trial_index_global": 141
        },
        {
            "rt": -1,
            "trial_type": "single-stim",
            "stimulus": "",
            "internal_chunk_id": "0-0.3-6",
            "time_elapsed": 100645,
            "key_press": -1,
            "trial_index": 0,
            "trial_index_global": 142
        },
        {
            "rt": -1,
            "trial_type": "single-stim",
            "stimulus": "<div class = centerbox><p class = 'stroop-stim'>+</p></div>",
            "internal_chunk_id": "0-0.3-7",
            "time_elapsed": 100849,
            "key_press": -1,
            "trial_index": 0,
            "trial_index_global": 143
        },
        {
            "rt": 481,
            "trial_type": "single-stim",
            "stimulus": "<div class = centerbox><p class = stroop-stim style = \"color:green\">BLUE</p></div>",
            "internal_chunk_id": "0-0.3-7",
            "time_elapsed": 101473,
            "key_press": 71,
            "type": "stroop_frequent",
            "trial_index": 0,
            "trial_index_global": 144
        },
        {
            "rt": -1,
            "trial_type": "single-stim",
            "stimulus": "",
            "internal_chunk_id": "0-0.3-7",
            "time_elapsed": 101726,
            "key_press": -1,
            "trial_index": 0,
            "trial_index_global": 145
        },
        {
            "rt": -1,
            "trial_type": "single-stim",
            "stimulus": "<div class = centerbox><p class = 'stroop-stim'>+</p></div>",
            "internal_chunk_id": "0-0.3-8",
            "time_elapsed": 101933,
            "key_press": -1,
            "trial_index": 0,
            "trial_index_global": 146
        },
        {
            "rt": 700,
            "trial_type": "single-stim",
            "stimulus": "<div class = centerbox><p class = stroop-stim style = \"color:blue\">RED</p></div>",
            "internal_chunk_id": "0-0.3-8",
            "time_elapsed": 102789,
            "key_press": 66,
            "type": "stroop_frequent",
            "trial_index": 0,
            "trial_index_global": 147
        },
        {
            "rt": -1,
            "trial_type": "single-stim",
            "stimulus": "",
            "internal_chunk_id": "0-0.3-8",
            "time_elapsed": 103060,
            "key_press": -1,
            "trial_index": 0,
            "trial_index_global": 148
        },
        {
            "rt": -1,
            "trial_type": "single-stim",
            "stimulus": "<div class = centerbox><p class = 'stroop-stim'>+</p></div>",
            "internal_chunk_id": "0-0.3-9",
            "time_elapsed": 103266,
            "key_press": -1,
            "trial_index": 0,
            "trial_index_global": 149
        },
        {
            "rt": 653,
            "trial_type": "single-stim",
            "stimulus": "<div class = centerbox><p class = stroop-stim style = \"color:red\">GREEN</p></div>",
            "internal_chunk_id": "0-0.3-9",
            "time_elapsed": 104075,
            "key_press": 82,
            "type": "stroop_frequent",
            "trial_index": 0,
            "trial_index_global": 150
        },
        {
            "rt": -1,
            "trial_type": "single-stim",
            "stimulus": "",
            "internal_chunk_id": "0-0.3-9",
            "time_elapsed": 104330,
            "key_press": -1,
            "trial_index": 0,
            "trial_index_global": 151
        },
        {
            "rt": -1,
            "trial_type": "single-stim",
            "stimulus": "<div class = centerbox><p class = 'stroop-stim'>+</p></div>",
            "internal_chunk_id": "0-0.3-10",
            "time_elapsed": 104533,
            "key_press": -1,
            "trial_index": 0,
            "trial_index_global": 152
        },
        {
            "rt": 919,
            "trial_type": "single-stim",
            "stimulus": "<div class = centerbox><p class = stroop-stim style = \"color:green\">RED</p></div>",
            "internal_chunk_id": "0-0.3-10",
            "time_elapsed": 105561,
            "key_press": 71,
            "type": "stroop_frequent",
            "trial_index": 0,
            "trial_index_global": 153
        },
        {
            "rt": -1,
            "trial_type": "single-stim",
            "stimulus": "",
            "internal_chunk_id": "0-0.3-10",
            "time_elapsed": 105829,
            "key_press": -1,
            "trial_index": 0,
            "trial_index_global": 154
        },
        {
            "rt": -1,
            "trial_type": "single-stim",
            "stimulus": "<div class = centerbox><p class = 'stroop-stim'>+</p></div>",
            "internal_chunk_id": "0-0.3-11",
            "time_elapsed": 106032,
            "key_press": -1,
            "trial_index": 0,
            "trial_index_global": 155
        },
        {
            "rt": 388,
            "trial_type": "single-stim",
            "stimulus": "<div class = centerbox><p class = stroop-stim style = \"color:green\">BLUE</p></div>",
            "internal_chunk_id": "0-0.3-11",
            "time_elapsed": 106560,
            "key_press": 71,
            "type": "stroop_frequent",
            "trial_index": 0,
            "trial_index_global": 156
        },
        {
            "rt": -1,
            "trial_type": "single-stim",
            "stimulus": "",
            "internal_chunk_id": "0-0.3-11",
            "time_elapsed": 106815,
            "key_press": -1,
            "trial_index": 0,
            "trial_index_global": 157
        },
        {
            "rt": -1,
            "trial_type": "single-stim",
            "stimulus": "<div class = centerbox><p class = 'stroop-stim'>+</p></div>",
            "internal_chunk_id": "0-0.3-12",
            "time_elapsed": 107016,
            "key_press": -1,
            "trial_index": 0,
            "trial_index_global": 158
        },
        {
            "rt": 372,
            "trial_type": "single-stim",
            "stimulus": "<div class = centerbox><p class = stroop-stim style = \"color:green\">BLUE</p></div>",
            "internal_chunk_id": "0-0.3-12",
            "time_elapsed": 107528,
            "key_press": 71,
            "type": "stroop_frequent",
            "trial_index": 0,
            "trial_index_global": 159
        },
        {
            "rt": -1,
            "trial_type": "single-stim",
            "stimulus": "",
            "internal_chunk_id": "0-0.3-12",
            "time_elapsed": 107782,
            "key_press": -1,
            "trial_index": 0,
            "trial_index_global": 160
        },
        {
            "rt": -1,
            "trial_type": "single-stim",
            "stimulus": "<div class = centerbox><p class = 'stroop-stim'>+</p></div>",
            "internal_chunk_id": "0-0.3-13",
            "time_elapsed": 107998,
            "key_press": -1,
            "trial_index": 0,
            "trial_index_global": 161
        },
        {
            "rt": 389,
            "trial_type": "single-stim",
            "stimulus": "<div class = centerbox><p class = stroop-stim style = \"color:green\">GREEN</p></div>",
            "internal_chunk_id": "0-0.3-13",
            "time_elapsed": 108527,
            "key_press": 71,
            "type": "stroop_frequent",
            "trial_index": 0,
            "trial_index_global": 162
        },
        {
            "rt": -1,
            "trial_type": "single-stim",
            "stimulus": "",
            "internal_chunk_id": "0-0.3-13",
            "time_elapsed": 108779,
            "key_press": -1,
            "trial_index": 0,
            "trial_index_global": 163
        },
        {
            "rt": -1,
            "trial_type": "single-stim",
            "stimulus": "<div class = centerbox><p class = 'stroop-stim'>+</p></div>",
            "internal_chunk_id": "0-0.3-14",
            "time_elapsed": 109031,
            "key_press": -1,
            "trial_index": 0,
            "trial_index_global": 164
        },
        {
            "rt": 358,
            "trial_type": "single-stim",
            "stimulus": "<div class = centerbox><p class = stroop-stim style = \"color:green\">RED</p></div>",
            "internal_chunk_id": "0-0.3-14",
            "time_elapsed": 109529,
            "key_press": 71,
            "type": "stroop_frequent",
            "trial_index": 0,
            "trial_index_global": 165
        },
        {
            "rt": -1,
            "trial_type": "single-stim",
            "stimulus": "",
            "internal_chunk_id": "0-0.3-14",
            "time_elapsed": 109795,
            "key_press": -1,
            "trial_index": 0,
            "trial_index_global": 166
        },
        {
            "rt": -1,
            "trial_type": "single-stim",
            "stimulus": "<div class = centerbox><p class = 'stroop-stim'>+</p></div>",
            "internal_chunk_id": "0-0.3-15",
            "time_elapsed": 109999,
            "key_press": -1,
            "trial_index": 0,
            "trial_index_global": 167
        },
        {
            "rt": 481,
            "trial_type": "single-stim",
            "stimulus": "<div class = centerbox><p class = stroop-stim style = \"color:red\">RED</p></div>",
            "internal_chunk_id": "0-0.3-15",
            "time_elapsed": 110637,
            "key_press": 82,
            "type": "stroop_frequent",
            "trial_index": 0,
            "trial_index_global": 168
        },
        {
            "rt": -1,
            "trial_type": "single-stim",
            "stimulus": "",
            "internal_chunk_id": "0-0.3-15",
            "time_elapsed": 110894,
            "key_press": -1,
            "trial_index": 0,
            "trial_index_global": 169
        },
        {
            "rt": -1,
            "trial_type": "single-stim",
            "stimulus": "<div class = centerbox><p class = 'stroop-stim'>+</p></div>",
            "internal_chunk_id": "0-0.3-16",
            "time_elapsed": 111099,
            "key_press": -1,
            "trial_index": 0,
            "trial_index_global": 170
        },
        {
            "rt": 450,
            "trial_type": "single-stim",
            "stimulus": "<div class = centerbox><p class = stroop-stim style = \"color:green\">BLUE</p></div>",
            "internal_chunk_id": "0-0.3-16",
            "time_elapsed": 111689,
            "key_press": 71,
            "type": "stroop_frequent",
            "trial_index": 0,
            "trial_index_global": 171
        },
        {
            "rt": -1,
            "trial_type": "single-stim",
            "stimulus": "",
            "internal_chunk_id": "0-0.3-16",
            "time_elapsed": 111944,
            "key_press": -1,
            "trial_index": 0,
            "trial_index_global": 172
        },
        {
            "rt": -1,
            "trial_type": "single-stim",
            "stimulus": "<div class = centerbox><p class = 'stroop-stim'>+</p></div>",
            "internal_chunk_id": "0-0.3-17",
            "time_elapsed": 112149,
            "key_press": -1,
            "trial_index": 0,
            "trial_index_global": 173
        },
        {
            "rt": 951,
            "trial_type": "single-stim",
            "stimulus": "<div class = centerbox><p class = stroop-stim style = \"color:red\">GREEN</p></div>",
            "internal_chunk_id": "0-0.3-17",
            "time_elapsed": 113194,
            "key_press": 82,
            "type": "stroop_frequent",
            "trial_index": 0,
            "trial_index_global": 174
        },
        {
            "rt": -1,
            "trial_type": "single-stim",
            "stimulus": "",
            "internal_chunk_id": "0-0.3-17",
            "time_elapsed": 113463,
            "key_press": -1,
            "trial_index": 0,
            "trial_index_global": 175
        },
        {
            "rt": -1,
            "trial_type": "single-stim",
            "stimulus": "<div class = centerbox><p class = 'stroop-stim'>+</p></div>",
            "internal_chunk_id": "0-0.3-18",
            "time_elapsed": 113665,
            "key_press": -1,
            "trial_index": 0,
            "trial_index_global": 176
        },
        {
            "rt": 544,
            "trial_type": "single-stim",
            "stimulus": "<div class = centerbox><p class = stroop-stim style = \"color:blue\">RED</p></div>",
            "internal_chunk_id": "0-0.3-18",
            "time_elapsed": 114365,
            "key_press": 66,
            "type": "stroop_frequent",
            "trial_index": 0,
            "trial_index_global": 177
        },
        {
            "rt": -1,
            "trial_type": "single-stim",
            "stimulus": "",
            "internal_chunk_id": "0-0.3-18",
            "time_elapsed": 114628,
            "key_press": -1,
            "trial_index": 0,
            "trial_index_global": 178
        },
        {
            "rt": -1,
            "trial_type": "single-stim",
            "stimulus": "<div class = centerbox><p class = 'stroop-stim'>+</p></div>",
            "internal_chunk_id": "0-0.3-19",
            "time_elapsed": 114832,
            "key_press": -1,
            "trial_index": 0,
            "trial_index_global": 179
        },
        {
            "rt": 373,
            "trial_type": "single-stim",
            "stimulus": "<div class = centerbox><p class = stroop-stim style = \"color:blue\">RED</p></div>",
            "internal_chunk_id": "0-0.3-19",
            "time_elapsed": 115361,
            "key_press": 66,
            "type": "stroop_frequent",
            "trial_index": 0,
            "trial_index_global": 180
        },
        {
            "rt": -1,
            "trial_type": "single-stim",
            "stimulus": "",
            "internal_chunk_id": "0-0.3-19",
            "time_elapsed": 115629,
            "key_press": -1,
            "trial_index": 0,
            "trial_index_global": 181
        },
        {
            "rt": -1,
            "trial_type": "single-stim",
            "stimulus": "<div class = centerbox><p class = 'stroop-stim'>+</p></div>",
            "internal_chunk_id": "0-0.3-20",
            "time_elapsed": 115840,
            "key_press": -1,
            "trial_index": 0,
            "trial_index_global": 182
        },
        {
            "rt": 771,
            "trial_type": "single-stim",
            "stimulus": "<div class = centerbox><p class = stroop-stim style = \"color:green\">RED</p></div>",
            "internal_chunk_id": "0-0.3-20",
            "time_elapsed": 116783,
            "key_press": 71,
            "type": "stroop_frequent",
            "trial_index": 0,
            "trial_index_global": 183
        },
        {
            "rt": -1,
            "trial_type": "single-stim",
            "stimulus": "",
            "internal_chunk_id": "0-0.3-20",
            "time_elapsed": 117045,
            "key_press": -1,
            "trial_index": 0,
            "trial_index_global": 184
        },
        {
            "rt": -1,
            "trial_type": "single-stim",
            "stimulus": "<div class = centerbox><p class = 'stroop-stim'>+</p></div>",
            "internal_chunk_id": "0-0.3-21",
            "time_elapsed": 117250,
            "key_press": -1,
            "trial_index": 0,
            "trial_index_global": 185
        },
        {
            "rt": 809,
            "trial_type": "single-stim",
            "stimulus": "<div class = centerbox><p class = stroop-stim style = \"color:blue\">GREEN</p></div>",
            "internal_chunk_id": "0-0.3-21",
            "time_elapsed": 118231,
            "key_press": 66,
            "type": "stroop_frequent",
            "trial_index": 0,
            "trial_index_global": 186
        },
        {
            "rt": -1,
            "trial_type": "single-stim",
            "stimulus": "",
            "internal_chunk_id": "0-0.3-21",
            "time_elapsed": 118494,
            "key_press": -1,
            "trial_index": 0,
            "trial_index_global": 187
        },
        {
            "rt": -1,
            "trial_type": "single-stim",
            "stimulus": "<div class = centerbox><p class = 'stroop-stim'>+</p></div>",
            "internal_chunk_id": "0-0.3-22",
            "time_elapsed": 118699,
            "key_press": -1,
            "trial_index": 0,
            "trial_index_global": 188
        },
        {
            "rt": 390,
            "trial_type": "single-stim",
            "stimulus": "<div class = centerbox><p class = stroop-stim style = \"color:blue\">GREEN</p></div>",
            "internal_chunk_id": "0-0.3-22",
            "time_elapsed": 119245,
            "key_press": 66,
            "type": "stroop_frequent",
            "trial_index": 0,
            "trial_index_global": 189
        },
        {
            "rt": -1,
            "trial_type": "single-stim",
            "stimulus": "",
            "internal_chunk_id": "0-0.3-22",
            "time_elapsed": 119496,
            "key_press": -1,
            "trial_index": 0,
            "trial_index_global": 190
        },
        {
            "rt": -1,
            "trial_type": "single-stim",
            "stimulus": "<div class = centerbox><p class = 'stroop-stim'>+</p></div>",
            "internal_chunk_id": "0-0.3-23",
            "time_elapsed": 119699,
            "key_press": -1,
            "trial_index": 0,
            "trial_index_global": 191
        },
        {
            "rt": 747,
            "trial_type": "single-stim",
            "stimulus": "<div class = centerbox><p class = stroop-stim style = \"color:green\">RED</p></div>",
            "internal_chunk_id": "0-0.3-23",
            "time_elapsed": 120587,
            "key_press": 71,
            "type": "stroop_frequent",
            "trial_index": 0,
            "trial_index_global": 192
        },
        {
            "rt": -1,
            "trial_type": "single-stim",
            "stimulus": "",
            "internal_chunk_id": "0-0.3-23",
            "time_elapsed": 120845,
            "key_press": -1,
            "trial_index": 0,
            "trial_index_global": 193
        },
        {
            "rt": -1,
            "trial_type": "single-stim",
            "stimulus": "<div class = centerbox><p class = 'stroop-stim'>+</p></div>",
            "internal_chunk_id": "0-0.3-24",
            "time_elapsed": 121049,
            "key_press": -1,
            "trial_index": 0,
            "trial_index_global": 194
        },
        {
            "rt": 561,
            "trial_type": "single-stim",
            "stimulus": "<div class = centerbox><p class = stroop-stim style = \"color:blue\">RED</p></div>",
            "internal_chunk_id": "0-0.3-24",
            "time_elapsed": 121767,
            "key_press": 66,
            "type": "stroop_frequent",
            "trial_index": 0,
            "trial_index_global": 195
        },
        {
            "rt": -1,
            "trial_type": "single-stim",
            "stimulus": "",
            "internal_chunk_id": "0-0.3-24",
            "time_elapsed": 122027,
            "key_press": -1,
            "trial_index": 0,
            "trial_index_global": 196
        },
        {
            "rt": -1,
            "trial_type": "single-stim",
            "stimulus": "<div class = centerbox><p class = 'stroop-stim'>+</p></div>",
            "internal_chunk_id": "0-0.3-25",
            "time_elapsed": 122232,
            "key_press": -1,
            "trial_index": 0,
            "trial_index_global": 197
        },
        {
            "rt": 449,
            "trial_type": "single-stim",
            "stimulus": "<div class = centerbox><p class = stroop-stim style = \"color:blue\">BLUE</p></div>",
            "internal_chunk_id": "0-0.3-25",
            "time_elapsed": 122808,
            "key_press": 66,
            "type": "stroop_frequent",
            "trial_index": 0,
            "trial_index_global": 198
        },
        {
            "rt": -1,
            "trial_type": "single-stim",
            "stimulus": "",
            "internal_chunk_id": "0-0.3-25",
            "time_elapsed": 123061,
            "key_press": -1,
            "trial_index": 0,
            "trial_index_global": 199
        },
        {
            "rt": -1,
            "trial_type": "single-stim",
            "stimulus": "<div class = centerbox><p class = 'stroop-stim'>+</p></div>",
            "internal_chunk_id": "0-0.3-26",
            "time_elapsed": 123265,
            "key_press": -1,
            "trial_index": 0,
            "trial_index_global": 200
        },
        {
            "rt": 559,
            "trial_type": "single-stim",
            "stimulus": "<div class = centerbox><p class = stroop-stim style = \"color:red\">GREEN</p></div>",
            "internal_chunk_id": "0-0.3-26",
            "time_elapsed": 123980,
            "key_press": 82,
            "type": "stroop_frequent",
            "trial_index": 0,
            "trial_index_global": 201
        },
        {
            "rt": -1,
            "trial_type": "single-stim",
            "stimulus": "",
            "internal_chunk_id": "0-0.3-26",
            "time_elapsed": 124246,
            "key_press": -1,
            "trial_index": 0,
            "trial_index_global": 202
        },
        {
            "rt": -1,
            "trial_type": "single-stim",
            "stimulus": "<div class = centerbox><p class = 'stroop-stim'>+</p></div>",
            "internal_chunk_id": "0-0.3-27",
            "time_elapsed": 124448,
            "key_press": -1,
            "trial_index": 0,
            "trial_index_global": 203
        },
        {
            "rt": 716,
            "trial_type": "single-stim",
            "stimulus": "<div class = centerbox><p class = stroop-stim style = \"color:blue\">GREEN</p></div>",
            "internal_chunk_id": "0-0.3-27",
            "time_elapsed": 125320,
            "key_press": 71,
            "type": "stroop_frequent",
            "trial_index": 0,
            "trial_index_global": 204
        },
        {
            "rt": -1,
            "trial_type": "single-stim",
            "stimulus": "",
            "internal_chunk_id": "0-0.3-27",
            "time_elapsed": 125579,
            "key_press": -1,
            "trial_index": 0,
            "trial_index_global": 205
        },
        {
            "rt": -1,
            "trial_type": "single-stim",
            "stimulus": "<div class = centerbox><p class = 'stroop-stim'>+</p></div>",
            "internal_chunk_id": "0-0.3-28",
            "time_elapsed": 125782,
            "key_press": -1,
            "trial_index": 0,
            "trial_index_global": 206
        },
        {
            "rt": 747,
            "trial_type": "single-stim",
            "stimulus": "<div class = centerbox><p class = stroop-stim style = \"color:blue\">GREEN</p></div>",
            "internal_chunk_id": "0-0.3-28",
            "time_elapsed": 126686,
            "key_press": 66,
            "type": "stroop_frequent",
            "trial_index": 0,
            "trial_index_global": 207
        },
        {
            "rt": -1,
            "trial_type": "single-stim",
            "stimulus": "",
            "internal_chunk_id": "0-0.3-28",
            "time_elapsed": 126944,
            "key_press": -1,
            "trial_index": 0,
            "trial_index_global": 208
        },
        {
            "rt": -1,
            "trial_type": "single-stim",
            "stimulus": "<div class = centerbox><p class = 'stroop-stim'>+</p></div>",
            "internal_chunk_id": "0-0.3-29",
            "time_elapsed": 127148,
            "key_press": -1,
            "trial_index": 0,
            "trial_index_global": 209
        },
        {
            "rt": 918,
            "trial_type": "single-stim",
            "stimulus": "<div class = centerbox><p class = stroop-stim style = \"color:green\">RED</p></div>",
            "internal_chunk_id": "0-0.3-29",
            "time_elapsed": 128207,
            "key_press": 71,
            "type": "stroop_frequent",
            "trial_index": 0,
            "trial_index_global": 210
        },
        {
            "rt": -1,
            "trial_type": "single-stim",
            "stimulus": "",
            "internal_chunk_id": "0-0.3-29",
            "time_elapsed": 128462,
            "key_press": -1,
            "trial_index": 0,
            "trial_index_global": 211
        },
        {
            "rt": -1,
            "trial_type": "single-stim",
            "stimulus": "<div class = centerbox><p class = 'stroop-stim'>+</p></div>",
            "internal_chunk_id": "0-0.3-30",
            "time_elapsed": 128665,
            "key_press": -1,
            "trial_index": 0,
            "trial_index_global": 212
        },
        {
            "rt": 700,
            "trial_type": "single-stim",
            "stimulus": "<div class = centerbox><p class = stroop-stim style = \"color:red\">BLUE</p></div>",
            "internal_chunk_id": "0-0.3-30",
            "time_elapsed": 129521,
            "key_press": 82,
            "type": "stroop_frequent",
            "trial_index": 0,
            "trial_index_global": 213
        },
        {
            "rt": -1,
            "trial_type": "single-stim",
            "stimulus": "",
            "internal_chunk_id": "0-0.3-30",
            "time_elapsed": 129778,
            "key_press": -1,
            "trial_index": 0,
            "trial_index_global": 214
        },
        {
            "rt": -1,
            "trial_type": "single-stim",
            "stimulus": "<div class = centerbox><p class = 'stroop-stim'>+</p></div>",
            "internal_chunk_id": "0-0.3-31",
            "time_elapsed": 129982,
            "key_press": -1,
            "trial_index": 0,
            "trial_index_global": 215
        },
        {
            "rt": 1045,
            "trial_type": "single-stim",
            "stimulus": "<div class = centerbox><p class = stroop-stim style = \"color:blue\">RED</p></div>",
            "internal_chunk_id": "0-0.3-31",
            "time_elapsed": 131199,
            "key_press": 66,
            "type": "stroop_frequent",
            "trial_index": 0,
            "trial_index_global": 216
        },
        {
            "rt": -1,
            "trial_type": "single-stim",
            "stimulus": "",
            "internal_chunk_id": "0-0.3-31",
            "time_elapsed": 131462,
            "key_press": -1,
            "trial_index": 0,
            "trial_index_global": 217
        },
        {
            "rt": -1,
            "trial_type": "single-stim",
            "stimulus": "<div class = centerbox><p class = 'stroop-stim'>+</p></div>",
            "internal_chunk_id": "0-0.3-32",
            "time_elapsed": 131665,
            "key_press": -1,
            "trial_index": 0,
            "trial_index_global": 218
        },
        {
            "rt": 733,
            "trial_type": "single-stim",
            "stimulus": "<div class = centerbox><p class = stroop-stim style = \"color:green\">RED</p></div>",
            "internal_chunk_id": "0-0.3-32",
            "time_elapsed": 132539,
            "key_press": 71,
            "type": "stroop_frequent",
            "trial_index": 0,
            "trial_index_global": 219
        },
        {
            "rt": -1,
            "trial_type": "single-stim",
            "stimulus": "",
            "internal_chunk_id": "0-0.3-32",
            "time_elapsed": 132795,
            "key_press": -1,
            "trial_index": 0,
            "trial_index_global": 220
        },
        {
            "rt": -1,
            "trial_type": "single-stim",
            "stimulus": "<div class = centerbox><p class = 'stroop-stim'>+</p></div>",
            "internal_chunk_id": "0-0.3-33",
            "time_elapsed": 132998,
            "key_press": -1,
            "trial_index": 0,
            "trial_index_global": 221
        },
        {
            "rt": 450,
            "trial_type": "single-stim",
            "stimulus": "<div class = centerbox><p class = stroop-stim style = \"color:green\">GREEN</p></div>",
            "internal_chunk_id": "0-0.3-33",
            "time_elapsed": 133589,
            "key_press": 71,
            "type": "stroop_frequent",
            "trial_index": 0,
            "trial_index_global": 222
        },
        {
            "rt": -1,
            "trial_type": "single-stim",
            "stimulus": "",
            "internal_chunk_id": "0-0.3-33",
            "time_elapsed": 133845,
            "key_press": -1,
            "trial_index": 0,
            "trial_index_global": 223
        },
        {
            "rt": -1,
            "trial_type": "single-stim",
            "stimulus": "<div class = centerbox><p class = 'stroop-stim'>+</p></div>",
            "internal_chunk_id": "0-0.3-34",
            "time_elapsed": 134048,
            "key_press": -1,
            "trial_index": 0,
            "trial_index_global": 224
        },
        {
            "rt": 637,
            "trial_type": "single-stim",
            "stimulus": "<div class = centerbox><p class = stroop-stim style = \"color:blue\">GREEN</p></div>",
            "internal_chunk_id": "0-0.3-34",
            "time_elapsed": 134826,
            "key_press": 66,
            "type": "stroop_frequent",
            "trial_index": 0,
            "trial_index_global": 225
        },
        {
            "rt": -1,
            "trial_type": "single-stim",
            "stimulus": "",
            "internal_chunk_id": "0-0.3-34",
            "time_elapsed": 135078,
            "key_press": -1,
            "trial_index": 0,
            "trial_index_global": 226
        },
        {
            "rt": -1,
            "trial_type": "single-stim",
            "stimulus": "<div class = centerbox><p class = 'stroop-stim'>+</p></div>",
            "internal_chunk_id": "0-0.3-35",
            "time_elapsed": 135281,
            "key_press": -1,
            "trial_index": 0,
            "trial_index_global": 227
        },
        {
            "rt": 341,
            "trial_type": "single-stim",
            "stimulus": "<div class = centerbox><p class = stroop-stim style = \"color:blue\">BLUE</p></div>",
            "internal_chunk_id": "0-0.3-35",
            "time_elapsed": 135763,
            "key_press": 66,
            "type": "stroop_frequent",
            "trial_index": 0,
            "trial_index_global": 228
        },
        {
            "rt": -1,
            "trial_type": "single-stim",
            "stimulus": "",
            "internal_chunk_id": "0-0.3-35",
            "time_elapsed": 136028,
            "key_press": -1,
            "trial_index": 0,
            "trial_index_global": 229
        },
        {
            "rt": -1,
            "trial_type": "single-stim",
            "stimulus": "<div class = centerbox><p class = 'stroop-stim'>+</p></div>",
            "internal_chunk_id": "0-0.3-36",
            "time_elapsed": 136231,
            "key_press": -1,
            "trial_index": 0,
            "trial_index_global": 230
        },
        {
            "rt": 481,
            "trial_type": "single-stim",
            "stimulus": "<div class = centerbox><p class = stroop-stim style = \"color:green\">RED</p></div>",
            "internal_chunk_id": "0-0.3-36",
            "time_elapsed": 136837,
            "key_press": 71,
            "type": "stroop_frequent",
            "trial_index": 0,
            "trial_index_global": 231
        },
        {
            "rt": -1,
            "trial_type": "single-stim",
            "stimulus": "",
            "internal_chunk_id": "0-0.3-36",
            "time_elapsed": 137110,
            "key_press": -1,
            "trial_index": 0,
            "trial_index_global": 232
        },
        {
            "rt": -1,
            "trial_type": "single-stim",
            "stimulus": "<div class = centerbox><p class = 'stroop-stim'>+</p></div>",
            "internal_chunk_id": "0-0.3-37",
            "time_elapsed": 137315,
            "key_press": -1,
            "trial_index": 0,
            "trial_index_global": 233
        },
        {
            "rt": 364,
            "trial_type": "single-stim",
            "stimulus": "<div class = centerbox><p class = stroop-stim style = \"color:green\">BLUE</p></div>",
            "internal_chunk_id": "0-0.3-37",
            "time_elapsed": 137819,
            "key_press": 71,
            "type": "stroop_frequent",
            "trial_index": 0,
            "trial_index_global": 234
        },
        {
            "rt": -1,
            "trial_type": "single-stim",
            "stimulus": "",
            "internal_chunk_id": "0-0.3-37",
            "time_elapsed": 138079,
            "key_press": -1,
            "trial_index": 0,
            "trial_index_global": 235
        },
        {
            "rt": -1,
            "trial_type": "single-stim",
            "stimulus": "<div class = centerbox><p class = 'stroop-stim'>+</p></div>",
            "internal_chunk_id": "0-0.3-38",
            "time_elapsed": 138281,
            "key_press": -1,
            "trial_index": 0,
            "trial_index_global": 236
        },
        {
            "rt": 357,
            "trial_type": "single-stim",
            "stimulus": "<div class = centerbox><p class = stroop-stim style = \"color:green\">RED</p></div>",
            "internal_chunk_id": "0-0.3-38",
            "time_elapsed": 138763,
            "key_press": 71,
            "type": "stroop_frequent",
            "trial_index": 0,
            "trial_index_global": 237
        },
        {
            "rt": -1,
            "trial_type": "single-stim",
            "stimulus": "",
            "internal_chunk_id": "0-0.3-38",
            "time_elapsed": 139026,
            "key_press": -1,
            "trial_index": 0,
            "trial_index_global": 238
        },
        {
            "rt": -1,
            "trial_type": "single-stim",
            "stimulus": "<div class = centerbox><p class = 'stroop-stim'>+</p></div>",
            "internal_chunk_id": "0-0.3-39",
            "time_elapsed": 139231,
            "key_press": -1,
            "trial_index": 0,
            "trial_index_global": 239
        },
        {
            "rt": 340,
            "trial_type": "single-stim",
            "stimulus": "<div class = centerbox><p class = stroop-stim style = \"color:green\">BLUE</p></div>",
            "internal_chunk_id": "0-0.3-39",
            "time_elapsed": 139681,
            "key_press": 71,
            "type": "stroop_frequent",
            "trial_index": 0,
            "trial_index_global": 240
        },
        {
            "rt": -1,
            "trial_type": "single-stim",
            "stimulus": "",
            "internal_chunk_id": "0-0.3-39",
            "time_elapsed": 139961,
            "key_press": -1,
            "trial_index": 0,
            "trial_index_global": 241
        },
        {
            "rt": -1,
            "trial_type": "single-stim",
            "stimulus": "<div class = centerbox><p class = 'stroop-stim'>+</p></div>",
            "internal_chunk_id": "0-0.3-40",
            "time_elapsed": 140164,
            "key_press": -1,
            "trial_index": 0,
            "trial_index_global": 242
        },
        {
            "rt": 388,
            "trial_type": "single-stim",
            "stimulus": "<div class = centerbox><p class = stroop-stim style = \"color:green\">RED</p></div>",
            "internal_chunk_id": "0-0.3-40",
            "time_elapsed": 140661,
            "key_press": 71,
            "type": "stroop_frequent",
            "trial_index": 0,
            "trial_index_global": 243
        },
        {
            "rt": -1,
            "trial_type": "single-stim",
            "stimulus": "",
            "internal_chunk_id": "0-0.3-40",
            "time_elapsed": 140913,
            "key_press": -1,
            "trial_index": 0,
            "trial_index_global": 244
        },
        {
            "rt": -1,
            "trial_type": "single-stim",
            "stimulus": "<div class = centerbox><p class = 'stroop-stim'>+</p></div>",
            "internal_chunk_id": "0-0.3-41",
            "time_elapsed": 141114,
            "key_press": -1,
            "trial_index": 0,
            "trial_index_global": 245
        },
        {
            "rt": 716,
            "trial_type": "single-stim",
            "stimulus": "<div class = centerbox><p class = stroop-stim style = \"color:red\">GREEN</p></div>",
            "internal_chunk_id": "0-0.3-41",
            "time_elapsed": 141971,
            "key_press": 82,
            "type": "stroop_frequent",
            "trial_index": 0,
            "trial_index_global": 246
        },
        {
            "rt": -1,
            "trial_type": "single-stim",
            "stimulus": "",
            "internal_chunk_id": "0-0.3-41",
            "time_elapsed": 142227,
            "key_press": -1,
            "trial_index": 0,
            "trial_index_global": 247
        },
        {
            "rt": -1,
            "trial_type": "single-stim",
            "stimulus": "<div class = centerbox><p class = 'stroop-stim'>+</p></div>",
            "internal_chunk_id": "0-0.3-42",
            "time_elapsed": 142433,
            "key_press": -1,
            "trial_index": 0,
            "trial_index_global": 248
        },
        {
            "rt": 401,
            "trial_type": "single-stim",
            "stimulus": "<div class = centerbox><p class = stroop-stim style = \"color:green\">RED</p></div>",
            "internal_chunk_id": "0-0.3-42",
            "time_elapsed": 142990,
            "key_press": 71,
            "type": "stroop_frequent",
            "trial_index": 0,
            "trial_index_global": 249
        },
        {
            "rt": -1,
            "trial_type": "single-stim",
            "stimulus": "",
            "internal_chunk_id": "0-0.3-42",
            "time_elapsed": 143245,
            "key_press": -1,
            "trial_index": 0,
            "trial_index_global": 250
        },
        {
            "rt": -1,
            "trial_type": "single-stim",
            "stimulus": "<div class = centerbox><p class = 'stroop-stim'>+</p></div>",
            "internal_chunk_id": "0-0.3-43",
            "time_elapsed": 143448,
            "key_press": -1,
            "trial_index": 0,
            "trial_index_global": 251
        },
        {
            "rt": 388,
            "trial_type": "single-stim",
            "stimulus": "<div class = centerbox><p class = stroop-stim style = \"color:blue\">RED</p></div>",
            "internal_chunk_id": "0-0.3-43",
            "time_elapsed": 143976,
            "key_press": 66,
            "type": "stroop_frequent",
            "trial_index": 0,
            "trial_index_global": 252
        },
        {
            "rt": -1,
            "trial_type": "single-stim",
            "stimulus": "",
            "internal_chunk_id": "0-0.3-43",
            "time_elapsed": 144227,
            "key_press": -1,
            "trial_index": 0,
            "trial_index_global": 253
        },
        {
            "rt": -1,
            "trial_type": "single-stim",
            "stimulus": "<div class = centerbox><p class = 'stroop-stim'>+</p></div>",
            "internal_chunk_id": "0-0.3-44",
            "time_elapsed": 144433,
            "key_press": -1,
            "trial_index": 0,
            "trial_index_global": 254
        },
        {
            "rt": 712,
            "trial_type": "single-stim",
            "stimulus": "<div class = centerbox><p class = stroop-stim style = \"color:red\">BLUE</p></div>",
            "internal_chunk_id": "0-0.3-44",
            "time_elapsed": 145302,
            "key_press": 82,
            "type": "stroop_frequent",
            "trial_index": 0,
            "trial_index_global": 255
        },
        {
            "rt": -1,
            "trial_type": "single-stim",
            "stimulus": "",
            "internal_chunk_id": "0-0.3-44",
            "time_elapsed": 145560,
            "key_press": -1,
            "trial_index": 0,
            "trial_index_global": 256
        },
        {
            "rt": -1,
            "trial_type": "single-stim",
            "stimulus": "<div class = centerbox><p class = 'stroop-stim'>+</p></div>",
            "internal_chunk_id": "0-0.3-45",
            "time_elapsed": 145764,
            "key_press": -1,
            "trial_index": 0,
            "trial_index_global": 257
        },
        {
            "rt": 387,
            "trial_type": "single-stim",
            "stimulus": "<div class = centerbox><p class = stroop-stim style = \"color:green\">GREEN</p></div>",
            "internal_chunk_id": "0-0.3-45",
            "time_elapsed": 146308,
            "key_press": 71,
            "type": "stroop_frequent",
            "trial_index": 0,
            "trial_index_global": 258
        },
        {
            "rt": -1,
            "trial_type": "single-stim",
            "stimulus": "",
            "internal_chunk_id": "0-0.3-45",
            "time_elapsed": 146560,
            "key_press": -1,
            "trial_index": 0,
            "trial_index_global": 259
        },
        {
            "rt": -1,
            "trial_type": "single-stim",
            "stimulus": "<div class = centerbox><p class = 'stroop-stim'>+</p></div>",
            "internal_chunk_id": "0-0.3-46",
            "time_elapsed": 146764,
            "key_press": -1,
            "trial_index": 0,
            "trial_index_global": 260
        },
        {
            "rt": 575,
            "trial_type": "single-stim",
            "stimulus": "<div class = centerbox><p class = stroop-stim style = \"color:blue\">GREEN</p></div>",
            "internal_chunk_id": "0-0.3-46",
            "time_elapsed": 147495,
            "key_press": 66,
            "type": "stroop_frequent",
            "trial_index": 0,
            "trial_index_global": 261
        },
        {
            "rt": -1,
            "trial_type": "single-stim",
            "stimulus": "",
            "internal_chunk_id": "0-0.3-46",
            "time_elapsed": 147760,
            "key_press": -1,
            "trial_index": 0,
            "trial_index_global": 262
        },
        {
            "rt": -1,
            "trial_type": "single-stim",
            "stimulus": "<div class = centerbox><p class = 'stroop-stim'>+</p></div>",
            "internal_chunk_id": "0-0.3-47",
            "time_elapsed": 147964,
            "key_press": -1,
            "trial_index": 0,
            "trial_index_global": 263
        },
        {
            "rt": 372,
            "trial_type": "single-stim",
            "stimulus": "<div class = centerbox><p class = stroop-stim style = \"color:red\">BLUE</p></div>",
            "internal_chunk_id": "0-0.3-47",
            "time_elapsed": 148476,
            "key_press": 82,
            "type": "stroop_frequent",
            "trial_index": 0,
            "trial_index_global": 264
        },
        {
            "rt": -1,
            "trial_type": "single-stim",
            "stimulus": "",
            "internal_chunk_id": "0-0.3-47",
            "time_elapsed": 148727,
            "key_press": -1,
            "trial_index": 0,
            "trial_index_global": 265
        },
        {
            "rt": -1,
            "trial_type": "single-stim",
            "stimulus": "<div class = centerbox><p class = 'stroop-stim'>+</p></div>",
            "internal_chunk_id": "0-0.3-48",
            "time_elapsed": 148931,
            "key_press": -1,
            "trial_index": 0,
            "trial_index_global": 266
        },
        {
            "rt": 358,
            "trial_type": "single-stim",
            "stimulus": "<div class = centerbox><p class = stroop-stim style = \"color:green\">BLUE</p></div>",
            "internal_chunk_id": "0-0.3-48",
            "time_elapsed": 149445,
            "key_press": 71,
            "type": "stroop_frequent",
            "trial_index": 0,
            "trial_index_global": 267
        },
        {
            "rt": -1,
            "trial_type": "single-stim",
            "stimulus": "",
            "internal_chunk_id": "0-0.3-48",
            "time_elapsed": 149726,
            "key_press": -1,
            "trial_index": 0,
            "trial_index_global": 268
        },
        {
            "rt": -1,
            "trial_type": "single-stim",
            "stimulus": "<div class = centerbox><p class = 'stroop-stim'>+</p></div>",
            "internal_chunk_id": "0-0.3-49",
            "time_elapsed": 149931,
            "key_press": -1,
            "trial_index": 0,
            "trial_index_global": 269
        },
        {
            "rt": 340,
            "trial_type": "single-stim",
            "stimulus": "<div class = centerbox><p class = stroop-stim style = \"color:blue\">RED</p></div>",
            "internal_chunk_id": "0-0.3-49",
            "time_elapsed": 150428,
            "key_press": 66,
            "type": "stroop_frequent",
            "trial_index": 0,
            "trial_index_global": 270
        },
        {
            "rt": -1,
            "trial_type": "single-stim",
            "stimulus": "",
            "internal_chunk_id": "0-0.3-49",
            "time_elapsed": 150679,
            "key_press": -1,
            "trial_index": 0,
            "trial_index_global": 271
        },
        {
            "rt": -1,
            "trial_type": "single-stim",
            "stimulus": "<div class = centerbox><p class = 'stroop-stim'>+</p></div>",
            "internal_chunk_id": "0-0.3-50",
            "time_elapsed": 150881,
            "key_press": -1,
            "trial_index": 0,
            "trial_index_global": 272
        },
        {
            "rt": 528,
            "trial_type": "single-stim",
            "stimulus": "<div class = centerbox><p class = stroop-stim style = \"color:green\">RED</p></div>",
            "internal_chunk_id": "0-0.3-50",
            "time_elapsed": 151550,
            "key_press": 71,
            "type": "stroop_frequent",
            "trial_index": 0,
            "trial_index_global": 273
        },
        {
            "rt": -1,
            "trial_type": "single-stim",
            "stimulus": "",
            "internal_chunk_id": "0-0.3-50",
            "time_elapsed": 151809,
            "key_press": -1,
            "trial_index": 0,
            "trial_index_global": 274
        },
        {
            "rt": -1,
            "trial_type": "single-stim",
            "stimulus": "<div class = centerbox><p class = 'stroop-stim'>+</p></div>",
            "internal_chunk_id": "0-0.3-51",
            "time_elapsed": 152014,
            "key_press": -1,
            "trial_index": 0,
            "trial_index_global": 275
        },
        {
            "rt": 394,
            "trial_type": "single-stim",
            "stimulus": "<div class = centerbox><p class = stroop-stim style = \"color:green\">BLUE</p></div>",
            "internal_chunk_id": "0-0.3-51",
            "time_elapsed": 152566,
            "key_press": 71,
            "type": "stroop_frequent",
            "trial_index": 0,
            "trial_index_global": 276
        },
        {
            "rt": -1,
            "trial_type": "single-stim",
            "stimulus": "",
            "internal_chunk_id": "0-0.3-51",
            "time_elapsed": 152819,
            "key_press": -1,
            "trial_index": 0,
            "trial_index_global": 277
        },
        {
            "rt": -1,
            "trial_type": "single-stim",
            "stimulus": "<div class = centerbox><p class = 'stroop-stim'>+</p></div>",
            "internal_chunk_id": "0-0.3-52",
            "time_elapsed": 153021,
            "key_press": -1,
            "trial_index": 0,
            "trial_index_global": 278
        },
        {
            "rt": 372,
            "trial_type": "single-stim",
            "stimulus": "<div class = centerbox><p class = stroop-stim style = \"color:green\">BLUE</p></div>",
            "internal_chunk_id": "0-0.3-52",
            "time_elapsed": 153533,
            "key_press": 71,
            "type": "stroop_frequent",
            "trial_index": 0,
            "trial_index_global": 279
        },
        {
            "rt": -1,
            "trial_type": "single-stim",
            "stimulus": "",
            "internal_chunk_id": "0-0.3-52",
            "time_elapsed": 153785,
            "key_press": -1,
            "trial_index": 0,
            "trial_index_global": 280
        },
        {
            "rt": -1,
            "trial_type": "single-stim",
            "stimulus": "<div class = centerbox><p class = 'stroop-stim'>+</p></div>",
            "internal_chunk_id": "0-0.3-53",
            "time_elapsed": 153988,
            "key_press": -1,
            "trial_index": 0,
            "trial_index_global": 281
        },
        {
            "rt": 371,
            "trial_type": "single-stim",
            "stimulus": "<div class = centerbox><p class = stroop-stim style = \"color:green\">BLUE</p></div>",
            "internal_chunk_id": "0-0.3-53",
            "time_elapsed": 154516,
            "key_press": 71,
            "type": "stroop_frequent",
            "trial_index": 0,
            "trial_index_global": 282
        },
        {
            "rt": -1,
            "trial_type": "single-stim",
            "stimulus": "",
            "internal_chunk_id": "0-0.3-53",
            "time_elapsed": 154768,
            "key_press": -1,
            "trial_index": 0,
            "trial_index_global": 283
        },
        {
            "rt": -1,
            "trial_type": "single-stim",
            "stimulus": "<div class = centerbox><p class = 'stroop-stim'>+</p></div>",
            "internal_chunk_id": "0-0.3-54",
            "time_elapsed": 154971,
            "key_press": -1,
            "trial_index": 0,
            "trial_index_global": 284
        },
        {
            "rt": 372,
            "trial_type": "single-stim",
            "stimulus": "<div class = centerbox><p class = stroop-stim style = \"color:green\">RED</p></div>",
            "internal_chunk_id": "0-0.3-54",
            "time_elapsed": 155499,
            "key_press": 71,
            "type": "stroop_frequent",
            "trial_index": 0,
            "trial_index_global": 285
        },
        {
            "rt": -1,
            "trial_type": "single-stim",
            "stimulus": "",
            "internal_chunk_id": "0-0.3-54",
            "time_elapsed": 155751,
            "key_press": -1,
            "trial_index": 0,
            "trial_index_global": 286
        },
        {
            "rt": -1,
            "trial_type": "single-stim",
            "stimulus": "<div class = centerbox><p class = 'stroop-stim'>+</p></div>",
            "internal_chunk_id": "0-0.3-55",
            "time_elapsed": 155954,
            "key_press": -1,
            "trial_index": 0,
            "trial_index_global": 287
        },
        {
            "rt": 419,
            "trial_type": "single-stim",
            "stimulus": "<div class = centerbox><p class = stroop-stim style = \"color:blue\">RED</p></div>",
            "internal_chunk_id": "0-0.3-55",
            "time_elapsed": 156436,
            "key_press": 66,
            "type": "stroop_frequent",
            "trial_index": 0,
            "trial_index_global": 288
        },
        {
            "rt": -1,
            "trial_type": "single-stim",
            "stimulus": "",
            "internal_chunk_id": "0-0.3-55",
            "time_elapsed": 156699,
            "key_press": -1,
            "trial_index": 0,
