{
    "ApprovalTime": "2015-03-05T00:54:05Z",
    "AutoApprovalTime": "2015-03-05T00:53:05Z",
    "AssignmentId": "3634BBTX0OUCV3VHQVS6QWT75Q5IF9",
    "WorkerId": "A1FBO95OVBYOH1",
    "AcceptTime": "2015-03-05T00:16:09Z",
    "HITId": "30IRMPJWDZJXH4SLRQ8BVHQI6CFRKH",
    "Assignment": "",
    "answer": [
        {
            "rt": 100045,
            "trial_type": "text",
            "internal_chunk_id": "0-0",
            "time_elapsed": 100117,
            "key_press": 13,
            "trial_index": 0,
            "trial_index_global": 0
        },
        {
            "rt": -1,
            "trial_type": "single-stim",
            "stimulus": "<div class = centerbox><p class = 'stroop-stim'>+</p></div>",
            "internal_chunk_id": "0-0.1-0",
            "time_elapsed": 101327,
            "key_press": -1,
            "trial_index": 0,
            "trial_index_global": 1
        },
        {
            "rt": 1310,
            "trial_type": "single-stim",
            "stimulus": "<div class = centerbox><p class = stroop-stim style = \"color:green\">RED</p></div>",
            "internal_chunk_id": "0-0.1-0",
            "time_elapsed": 102760,
            "key_press": 71,
            "type": "stroop_practice",
            "trial_index": 0,
            "trial_index_global": 2
        },
        {
            "rt": -1,
            "trial_type": "single-stim",
            "stimulus": "",
            "internal_chunk_id": "0-0.1-0",
            "time_elapsed": 103013,
            "key_press": -1,
            "trial_index": 0,
            "trial_index_global": 3
        },
        {
            "rt": -1,
            "trial_type": "single-stim",
            "stimulus": "<div class = centerbox><p class = stroop-stim>correct</p></div>",
            "internal_chunk_id": "0-0.1-0",
            "time_elapsed": 103516,
            "key_press": -1,
            "trial_index": 0,
            "trial_index_global": 4
        },
        {
            "rt": -1,
            "trial_type": "single-stim",
            "stimulus": "",
            "internal_chunk_id": "0-0.1-0",
            "time_elapsed": 103769,
            "key_press": -1,
            "trial_index": 0,
            "trial_index_global": 5
        },
        {
            "rt": -1,
            "trial_type": "single-stim",
            "stimulus": "<div class = centerbox><p class = 'stroop-stim'>+</p></div>",
            "internal_chunk_id": "0-0.1-1",
            "time_elapsed": 103972,
            "key_press": -1,
            "trial_index": 0,
            "trial_index_global": 6
        },
        {
            "rt": 896,
            "trial_type": "single-stim",
            "stimulus": "<div class = centerbox><p class = stroop-stim style = \"color:red\">RED</p></div>",
            "internal_chunk_id": "0-0.1-1",
            "time_elapsed": 104976,
            "key_press": 82,
            "type": "stroop_practice",
            "trial_index": 0,
            "trial_index_global": 7
        },
        {
            "rt": -1,
            "trial_type": "single-stim",
            "stimulus": "",
            "internal_chunk_id": "0-0.1-1",
            "time_elapsed": 105227,
            "key_press": -1,
            "trial_index": 0,
            "trial_index_global": 8
        },
        {
            "rt": -1,
            "trial_type": "single-stim",
            "stimulus": "<div class = centerbox><p class = stroop-stim>correct</p></div>",
            "internal_chunk_id": "0-0.1-1",
            "time_elapsed": 105730,
            "key_press": -1,
            "trial_index": 0,
            "trial_index_global": 9
        },
        {
            "rt": -1,
            "trial_type": "single-stim",
            "stimulus": "",
            "internal_chunk_id": "0-0.1-1",
            "time_elapsed": 105982,
            "key_press": -1,
            "trial_index": 0,
            "trial_index_global": 10
        },
        {
            "rt": -1,
            "trial_type": "single-stim",
            "stimulus": "<div class = centerbox><p class = 'stroop-stim'>+</p></div>",
            "internal_chunk_id": "0-0.1-2",
            "time_elapsed": 106184,
            "key_press": -1,
            "trial_index": 0,
            "trial_index_global": 11
        },
        {
            "rt": 1673,
            "trial_type": "single-stim",
            "stimulus": "<div class = centerbox><p class = stroop-stim style = \"color:green\">BLUE</p></div>",
            "internal_chunk_id": "0-0.1-2",
            "time_elapsed": 107983,
            "key_press": 71,
            "type": "stroop_practice",
            "trial_index": 0,
            "trial_index_global": 12
        },
        {
            "rt": -1,
            "trial_type": "single-stim",
            "stimulus": "",
            "internal_chunk_id": "0-0.1-2",
            "time_elapsed": 108235,
            "key_press": -1,
            "trial_index": 0,
            "trial_index_global": 13
        },
        {
            "rt": -1,
            "trial_type": "single-stim",
            "stimulus": "<div class = centerbox><p class = stroop-stim>correct</p></div>",
            "internal_chunk_id": "0-0.1-2",
            "time_elapsed": 108738,
            "key_press": -1,
            "trial_index": 0,
            "trial_index_global": 14
        },
        {
            "rt": -1,
            "trial_type": "single-stim",
            "stimulus": "",
            "internal_chunk_id": "0-0.1-2",
            "time_elapsed": 108989,
            "key_press": -1,
            "trial_index": 0,
            "trial_index_global": 15
        },
        {
            "rt": -1,
            "trial_type": "single-stim",
            "stimulus": "<div class = centerbox><p class = 'stroop-stim'>+</p></div>",
            "internal_chunk_id": "0-0.1-3",
            "time_elapsed": 109191,
            "key_press": -1,
            "trial_index": 0,
            "trial_index_global": 16
        },
        {
            "rt": 802,
            "trial_type": "single-stim",
            "stimulus": "<div class = centerbox><p class = stroop-stim style = \"color:green\">BLUE</p></div>",
            "internal_chunk_id": "0-0.1-3",
            "time_elapsed": 110110,
            "key_press": 71,
            "type": "stroop_practice",
            "trial_index": 0,
            "trial_index_global": 17
        },
        {
            "rt": -1,
            "trial_type": "single-stim",
            "stimulus": "",
            "internal_chunk_id": "0-0.1-3",
            "time_elapsed": 110362,
            "key_press": -1,
            "trial_index": 0,
            "trial_index_global": 18
        },
        {
            "rt": -1,
            "trial_type": "single-stim",
            "stimulus": "<div class = centerbox><p class = stroop-stim>correct</p></div>",
            "internal_chunk_id": "0-0.1-3",
            "time_elapsed": 110865,
            "key_press": -1,
            "trial_index": 0,
            "trial_index_global": 19
        },
        {
            "rt": -1,
            "trial_type": "single-stim",
            "stimulus": "",
            "internal_chunk_id": "0-0.1-3",
            "time_elapsed": 111117,
            "key_press": -1,
            "trial_index": 0,
            "trial_index_global": 20
        },
        {
            "rt": -1,
            "trial_type": "single-stim",
            "stimulus": "<div class = centerbox><p class = 'stroop-stim'>+</p></div>",
            "internal_chunk_id": "0-0.1-4",
            "time_elapsed": 111319,
            "key_press": -1,
            "trial_index": 0,
            "trial_index_global": 21
        },
        {
            "rt": 1308,
            "trial_type": "single-stim",
            "stimulus": "<div class = centerbox><p class = stroop-stim style = \"color:green\">RED</p></div>",
            "internal_chunk_id": "0-0.1-4",
            "time_elapsed": 112807,
            "key_press": 71,
            "type": "stroop_practice",
            "trial_index": 0,
            "trial_index_global": 22
        },
        {
            "rt": -1,
            "trial_type": "single-stim",
            "stimulus": "",
            "internal_chunk_id": "0-0.1-4",
            "time_elapsed": 113059,
            "key_press": -1,
            "trial_index": 0,
            "trial_index_global": 23
        },
        {
            "rt": -1,
            "trial_type": "single-stim",
            "stimulus": "<div class = centerbox><p class = stroop-stim>correct</p></div>",
            "internal_chunk_id": "0-0.1-4",
            "time_elapsed": 113561,
            "key_press": -1,
            "trial_index": 0,
            "trial_index_global": 24
        },
        {
            "rt": -1,
            "trial_type": "single-stim",
            "stimulus": "",
            "internal_chunk_id": "0-0.1-4",
            "time_elapsed": 113814,
            "key_press": -1,
            "trial_index": 0,
            "trial_index_global": 25
        },
        {
            "rt": -1,
            "trial_type": "single-stim",
            "stimulus": "<div class = centerbox><p class = 'stroop-stim'>+</p></div>",
            "internal_chunk_id": "0-0.1-5",
            "time_elapsed": 114017,
            "key_press": -1,
            "trial_index": 0,
            "trial_index_global": 26
        },
        {
            "rt": 750,
            "trial_type": "single-stim",
            "stimulus": "<div class = centerbox><p class = stroop-stim style = \"color:red\">RED</p></div>",
            "internal_chunk_id": "0-0.1-5",
            "time_elapsed": 114914,
            "key_press": 82,
            "type": "stroop_practice",
            "trial_index": 0,
            "trial_index_global": 27
        },
        {
            "rt": -1,
            "trial_type": "single-stim",
            "stimulus": "",
            "internal_chunk_id": "0-0.1-5",
            "time_elapsed": 115165,
            "key_press": -1,
            "trial_index": 0,
            "trial_index_global": 28
        },
        {
            "rt": -1,
            "trial_type": "single-stim",
            "stimulus": "<div class = centerbox><p class = stroop-stim>correct</p></div>",
            "internal_chunk_id": "0-0.1-5",
            "time_elapsed": 115668,
            "key_press": -1,
            "trial_index": 0,
            "trial_index_global": 29
        },
        {
            "rt": -1,
            "trial_type": "single-stim",
            "stimulus": "",
            "internal_chunk_id": "0-0.1-5",
            "time_elapsed": 115920,
            "key_press": -1,
            "trial_index": 0,
            "trial_index_global": 30
        },
        {
            "rt": -1,
            "trial_type": "single-stim",
            "stimulus": "<div class = centerbox><p class = 'stroop-stim'>+</p></div>",
            "internal_chunk_id": "0-0.1-6",
            "time_elapsed": 116122,
            "key_press": -1,
            "trial_index": 0,
            "trial_index_global": 31
        },
        {
            "rt": 772,
            "trial_type": "single-stim",
            "stimulus": "<div class = centerbox><p class = stroop-stim style = \"color:green\">GREEN</p></div>",
            "internal_chunk_id": "0-0.1-6",
            "time_elapsed": 117070,
            "key_press": 71,
            "type": "stroop_practice",
            "trial_index": 0,
            "trial_index_global": 32
        },
        {
            "rt": -1,
            "trial_type": "single-stim",
            "stimulus": "",
            "internal_chunk_id": "0-0.1-6",
            "time_elapsed": 117322,
            "key_press": -1,
            "trial_index": 0,
            "trial_index_global": 33
        },
        {
            "rt": -1,
            "trial_type": "single-stim",
            "stimulus": "<div class = centerbox><p class = stroop-stim>correct</p></div>",
            "internal_chunk_id": "0-0.1-6",
            "time_elapsed": 117826,
            "key_press": -1,
            "trial_index": 0,
            "trial_index_global": 34
        },
        {
            "rt": -1,
            "trial_type": "single-stim",
            "stimulus": "",
            "internal_chunk_id": "0-0.1-6",
            "time_elapsed": 118078,
            "key_press": -1,
            "trial_index": 0,
            "trial_index_global": 35
        },
        {
            "rt": -1,
            "trial_type": "single-stim",
            "stimulus": "<div class = centerbox><p class = 'stroop-stim'>+</p></div>",
            "internal_chunk_id": "0-0.1-7",
            "time_elapsed": 118280,
            "key_press": -1,
            "trial_index": 0,
            "trial_index_global": 36
        },
        {
            "rt": 790,
            "trial_type": "single-stim",
            "stimulus": "<div class = centerbox><p class = stroop-stim style = \"color:red\">RED</p></div>",
            "internal_chunk_id": "0-0.1-7",
            "time_elapsed": 119252,
            "key_press": 82,
            "type": "stroop_practice",
            "trial_index": 0,
            "trial_index_global": 37
        },
        {
            "rt": -1,
            "trial_type": "single-stim",
            "stimulus": "",
            "internal_chunk_id": "0-0.1-7",
            "time_elapsed": 119503,
            "key_press": -1,
            "trial_index": 0,
            "trial_index_global": 38
        },
        {
            "rt": -1,
            "trial_type": "single-stim",
            "stimulus": "<div class = centerbox><p class = stroop-stim>correct</p></div>",
            "internal_chunk_id": "0-0.1-7",
            "time_elapsed": 120006,
            "key_press": -1,
            "trial_index": 0,
            "trial_index_global": 39
        },
        {
            "rt": -1,
            "trial_type": "single-stim",
            "stimulus": "",
            "internal_chunk_id": "0-0.1-7",
            "time_elapsed": 120258,
            "key_press": -1,
            "trial_index": 0,
            "trial_index_global": 40
        },
        {
            "rt": -1,
            "trial_type": "single-stim",
            "stimulus": "<div class = centerbox><p class = 'stroop-stim'>+</p></div>",
            "internal_chunk_id": "0-0.1-8",
            "time_elapsed": 120460,
            "key_press": -1,
            "trial_index": 0,
            "trial_index_global": 41
        },
        {
            "rt": 627,
            "trial_type": "single-stim",
            "stimulus": "<div class = centerbox><p class = stroop-stim style = \"color:green\">GREEN</p></div>",
            "internal_chunk_id": "0-0.1-8",
            "time_elapsed": 121269,
            "key_press": 71,
            "type": "stroop_practice",
            "trial_index": 0,
            "trial_index_global": 42
        },
        {
            "rt": -1,
            "trial_type": "single-stim",
            "stimulus": "",
            "internal_chunk_id": "0-0.1-8",
            "time_elapsed": 121520,
            "key_press": -1,
            "trial_index": 0,
            "trial_index_global": 43
        },
        {
            "rt": -1,
            "trial_type": "single-stim",
            "stimulus": "<div class = centerbox><p class = stroop-stim>correct</p></div>",
            "internal_chunk_id": "0-0.1-8",
            "time_elapsed": 122023,
            "key_press": -1,
            "trial_index": 0,
            "trial_index_global": 44
        },
        {
            "rt": -1,
            "trial_type": "single-stim",
            "stimulus": "",
            "internal_chunk_id": "0-0.1-8",
            "time_elapsed": 122275,
            "key_press": -1,
            "trial_index": 0,
            "trial_index_global": 45
        },
        {
            "rt": -1,
            "trial_type": "single-stim",
            "stimulus": "<div class = centerbox><p class = 'stroop-stim'>+</p></div>",
            "internal_chunk_id": "0-0.1-9",
            "time_elapsed": 122477,
            "key_press": -1,
            "trial_index": 0,
            "trial_index_global": 46
        },
        {
            "rt": 621,
            "trial_type": "single-stim",
            "stimulus": "<div class = centerbox><p class = stroop-stim style = \"color:blue\">BLUE</p></div>",
            "internal_chunk_id": "0-0.1-9",
            "time_elapsed": 123256,
            "key_press": 66,
            "type": "stroop_practice",
            "trial_index": 0,
            "trial_index_global": 47
        },
        {
            "rt": -1,
            "trial_type": "single-stim",
            "stimulus": "",
            "internal_chunk_id": "0-0.1-9",
            "time_elapsed": 123507,
            "key_press": -1,
            "trial_index": 0,
            "trial_index_global": 48
        },
        {
            "rt": -1,
            "trial_type": "single-stim",
            "stimulus": "<div class = centerbox><p class = stroop-stim>correct</p></div>",
            "internal_chunk_id": "0-0.1-9",
            "time_elapsed": 124010,
            "key_press": -1,
            "trial_index": 0,
            "trial_index_global": 49
        },
        {
            "rt": -1,
            "trial_type": "single-stim",
            "stimulus": "",
            "internal_chunk_id": "0-0.1-9",
            "time_elapsed": 124262,
            "key_press": -1,
            "trial_index": 0,
            "trial_index_global": 50
        },
        {
            "rt": -1,
            "trial_type": "single-stim",
            "stimulus": "<div class = centerbox><p class = 'stroop-stim'>+</p></div>",
            "internal_chunk_id": "0-0.1-10",
            "time_elapsed": 124464,
            "key_press": -1,
            "trial_index": 0,
            "trial_index_global": 51
        },
        {
            "rt": 712,
            "trial_type": "single-stim",
            "stimulus": "<div class = centerbox><p class = stroop-stim style = \"color:blue\">BLUE</p></div>",
            "internal_chunk_id": "0-0.1-10",
            "time_elapsed": 125373,
            "key_press": 66,
            "type": "stroop_practice",
            "trial_index": 0,
            "trial_index_global": 52
        },
        {
            "rt": -1,
            "trial_type": "single-stim",
            "stimulus": "",
            "internal_chunk_id": "0-0.1-10",
            "time_elapsed": 125626,
            "key_press": -1,
            "trial_index": 0,
            "trial_index_global": 53
        },
        {
            "rt": -1,
            "trial_type": "single-stim",
            "stimulus": "<div class = centerbox><p class = stroop-stim>correct</p></div>",
            "internal_chunk_id": "0-0.1-10",
            "time_elapsed": 126129,
            "key_press": -1,
            "trial_index": 0,
            "trial_index_global": 54
        },
        {
            "rt": -1,
            "trial_type": "single-stim",
            "stimulus": "",
            "internal_chunk_id": "0-0.1-10",
            "time_elapsed": 126381,
            "key_press": -1,
            "trial_index": 0,
            "trial_index_global": 55
        },
        {
            "rt": -1,
            "trial_type": "single-stim",
            "stimulus": "<div class = centerbox><p class = 'stroop-stim'>+</p></div>",
            "internal_chunk_id": "0-0.1-11",
            "time_elapsed": 126585,
            "key_press": -1,
            "trial_index": 0,
            "trial_index_global": 56
        },
        {
            "rt": 813,
            "trial_type": "single-stim",
            "stimulus": "<div class = centerbox><p class = stroop-stim style = \"color:green\">GREEN</p></div>",
            "internal_chunk_id": "0-0.1-11",
            "time_elapsed": 127590,
            "key_press": 71,
            "type": "stroop_practice",
            "trial_index": 0,
            "trial_index_global": 57
        },
        {
            "rt": -1,
            "trial_type": "single-stim",
            "stimulus": "",
            "internal_chunk_id": "0-0.1-11",
            "time_elapsed": 127842,
            "key_press": -1,
            "trial_index": 0,
            "trial_index_global": 58
        },
        {
            "rt": -1,
            "trial_type": "single-stim",
            "stimulus": "<div class = centerbox><p class = stroop-stim>correct</p></div>",
            "internal_chunk_id": "0-0.1-11",
            "time_elapsed": 128344,
            "key_press": -1,
            "trial_index": 0,
            "trial_index_global": 59
        },
        {
            "rt": -1,
            "trial_type": "single-stim",
            "stimulus": "",
            "internal_chunk_id": "0-0.1-11",
            "time_elapsed": 128597,
            "key_press": -1,
            "trial_index": 0,
            "trial_index_global": 60
        },
        {
            "rt": -1,
            "trial_type": "single-stim",
            "stimulus": "<div class = centerbox><p class = 'stroop-stim'>+</p></div>",
            "internal_chunk_id": "0-0.1-12",
            "time_elapsed": 128800,
            "key_press": -1,
            "trial_index": 0,
            "trial_index_global": 61
        },
        {
            "rt": 650,
            "trial_type": "single-stim",
            "stimulus": "<div class = centerbox><p class = stroop-stim style = \"color:blue\">BLUE</p></div>",
            "internal_chunk_id": "0-0.1-12",
            "time_elapsed": 129616,
            "key_press": 66,
            "type": "stroop_practice",
            "trial_index": 0,
            "trial_index_global": 62
        },
        {
            "rt": -1,
            "trial_type": "single-stim",
            "stimulus": "",
            "internal_chunk_id": "0-0.1-12",
            "time_elapsed": 129868,
            "key_press": -1,
            "trial_index": 0,
            "trial_index_global": 63
        },
        {
            "rt": -1,
            "trial_type": "single-stim",
            "stimulus": "<div class = centerbox><p class = stroop-stim>correct</p></div>",
            "internal_chunk_id": "0-0.1-12",
            "time_elapsed": 130371,
            "key_press": -1,
            "trial_index": 0,
            "trial_index_global": 64
        },
        {
            "rt": -1,
            "trial_type": "single-stim",
            "stimulus": "",
            "internal_chunk_id": "0-0.1-12",
            "time_elapsed": 130623,
            "key_press": -1,
            "trial_index": 0,
            "trial_index_global": 65
        },
        {
            "rt": -1,
            "trial_type": "single-stim",
            "stimulus": "<div class = centerbox><p class = 'stroop-stim'>+</p></div>",
            "internal_chunk_id": "0-0.1-13",
            "time_elapsed": 130827,
            "key_press": -1,
            "trial_index": 0,
            "trial_index_global": 66
        },
        {
            "rt": 3276,
            "trial_type": "single-stim",
            "stimulus": "<div class = centerbox><p class = stroop-stim style = \"color:blue\">RED</p></div>",
            "internal_chunk_id": "0-0.1-13",
            "time_elapsed": 134241,
            "key_press": 66,
            "type": "stroop_practice",
            "trial_index": 0,
            "trial_index_global": 67
        },
        {
            "rt": -1,
            "trial_type": "single-stim",
            "stimulus": "",
            "internal_chunk_id": "0-0.1-13",
            "time_elapsed": 134494,
            "key_press": -1,
            "trial_index": 0,
            "trial_index_global": 68
        },
        {
            "rt": -1,
            "trial_type": "single-stim",
            "stimulus": "<div class = centerbox><p class = stroop-stim>correct</p></div>",
            "internal_chunk_id": "0-0.1-13",
            "time_elapsed": 134998,
            "key_press": -1,
            "trial_index": 0,
            "trial_index_global": 69
        },
        {
            "rt": -1,
            "trial_type": "single-stim",
            "stimulus": "",
            "internal_chunk_id": "0-0.1-13",
            "time_elapsed": 135250,
            "key_press": -1,
            "trial_index": 0,
            "trial_index_global": 70
        },
        {
            "rt": -1,
            "trial_type": "single-stim",
            "stimulus": "<div class = centerbox><p class = 'stroop-stim'>+</p></div>",
            "internal_chunk_id": "0-0.1-14",
            "time_elapsed": 135453,
            "key_press": -1,
            "trial_index": 0,
            "trial_index_global": 71
        },
        {
            "rt": 1987,
            "trial_type": "single-stim",
            "stimulus": "<div class = centerbox><p class = stroop-stim style = \"color:blue\">GREEN</p></div>",
            "internal_chunk_id": "0-0.1-14",
            "time_elapsed": 137573,
            "key_press": 66,
            "type": "stroop_practice",
            "trial_index": 0,
            "trial_index_global": 72
        },
        {
            "rt": -1,
            "trial_type": "single-stim",
            "stimulus": "",
            "internal_chunk_id": "0-0.1-14",
            "time_elapsed": 137825,
            "key_press": -1,
            "trial_index": 0,
            "trial_index_global": 73
        },
        {
            "rt": -1,
            "trial_type": "single-stim",
            "stimulus": "<div class = centerbox><p class = stroop-stim>correct</p></div>",
            "internal_chunk_id": "0-0.1-14",
            "time_elapsed": 138328,
            "key_press": -1,
            "trial_index": 0,
            "trial_index_global": 74
        },
        {
            "rt": -1,
            "trial_type": "single-stim",
            "stimulus": "",
            "internal_chunk_id": "0-0.1-14",
            "time_elapsed": 138580,
            "key_press": -1,
            "trial_index": 0,
            "trial_index_global": 75
        },
        {
            "rt": -1,
            "trial_type": "single-stim",
            "stimulus": "<div class = centerbox><p class = 'stroop-stim'>+</p></div>",
            "internal_chunk_id": "0-0.1-15",
            "time_elapsed": 138784,
            "key_press": -1,
            "trial_index": 0,
            "trial_index_global": 76
        },
        {
            "rt": 1559,
            "trial_type": "single-stim",
            "stimulus": "<div class = centerbox><p class = stroop-stim style = \"color:blue\">GREEN</p></div>",
            "internal_chunk_id": "0-0.1-15",
            "time_elapsed": 140485,
            "key_press": 66,
            "type": "stroop_practice",
            "trial_index": 0,
            "trial_index_global": 77
        },
        {
            "rt": -1,
            "trial_type": "single-stim",
            "stimulus": "",
            "internal_chunk_id": "0-0.1-15",
            "time_elapsed": 140737,
            "key_press": -1,
            "trial_index": 0,
            "trial_index_global": 78
        },
        {
            "rt": -1,
            "trial_type": "single-stim",
            "stimulus": "<div class = centerbox><p class = stroop-stim>correct</p></div>",
            "internal_chunk_id": "0-0.1-15",
            "time_elapsed": 141240,
            "key_press": -1,
            "trial_index": 0,
            "trial_index_global": 79
        },
        {
            "rt": -1,
            "trial_type": "single-stim",
            "stimulus": "",
            "internal_chunk_id": "0-0.1-15",
            "time_elapsed": 141492,
            "key_press": -1,
            "trial_index": 0,
            "trial_index_global": 80
        },
        {
            "rt": -1,
            "trial_type": "single-stim",
            "stimulus": "<div class = centerbox><p class = 'stroop-stim'>+</p></div>",
            "internal_chunk_id": "0-0.1-16",
            "time_elapsed": 141696,
            "key_press": -1,
            "trial_index": 0,
            "trial_index_global": 81
        },
        {
            "rt": 527,
            "trial_type": "single-stim",
            "stimulus": "<div class = centerbox><p class = stroop-stim style = \"color:blue\">BLUE</p></div>",
            "internal_chunk_id": "0-0.1-16",
            "time_elapsed": 142371,
            "key_press": 66,
            "type": "stroop_practice",
            "trial_index": 0,
            "trial_index_global": 82
        },
        {
            "rt": -1,
            "trial_type": "single-stim",
            "stimulus": "",
            "internal_chunk_id": "0-0.1-16",
            "time_elapsed": 142625,
            "key_press": -1,
            "trial_index": 0,
            "trial_index_global": 83
        },
        {
            "rt": -1,
            "trial_type": "single-stim",
            "stimulus": "<div class = centerbox><p class = stroop-stim>correct</p></div>",
            "internal_chunk_id": "0-0.1-16",
            "time_elapsed": 143128,
            "key_press": -1,
            "trial_index": 0,
            "trial_index_global": 84
        },
        {
            "rt": -1,
            "trial_type": "single-stim",
            "stimulus": "",
            "internal_chunk_id": "0-0.1-16",
            "time_elapsed": 143380,
            "key_press": -1,
            "trial_index": 0,
            "trial_index_global": 85
        },
        {
            "rt": -1,
            "trial_type": "single-stim",
            "stimulus": "<div class = centerbox><p class = 'stroop-stim'>+</p></div>",
            "internal_chunk_id": "0-0.1-17",
            "time_elapsed": 143583,
            "key_press": -1,
            "trial_index": 0,
            "trial_index_global": 86
        },
        {
            "rt": 429,
            "trial_type": "single-stim",
            "stimulus": "<div class = centerbox><p class = stroop-stim style = \"color:red\">BLUE</p></div>",
            "internal_chunk_id": "0-0.1-17",
            "time_elapsed": 144179,
            "key_press": 82,
            "type": "stroop_practice",
            "trial_index": 0,
            "trial_index_global": 87
        },
        {
            "rt": -1,
            "trial_type": "single-stim",
            "stimulus": "",
            "internal_chunk_id": "0-0.1-17",
            "time_elapsed": 144430,
            "key_press": -1,
            "trial_index": 0,
            "trial_index_global": 88
        },
        {
            "rt": -1,
            "trial_type": "single-stim",
            "stimulus": "<div class = centerbox><p class = stroop-stim>correct</p></div>",
            "internal_chunk_id": "0-0.1-17",
            "time_elapsed": 144934,
            "key_press": -1,
            "trial_index": 0,
            "trial_index_global": 89
        },
        {
            "rt": -1,
            "trial_type": "single-stim",
            "stimulus": "",
            "internal_chunk_id": "0-0.1-17",
            "time_elapsed": 145186,
            "key_press": -1,
            "trial_index": 0,
            "trial_index_global": 90
        },
        {
            "rt": -1,
            "trial_type": "single-stim",
            "stimulus": "<div class = centerbox><p class = 'stroop-stim'>+</p></div>",
            "internal_chunk_id": "0-0.1-18",
            "time_elapsed": 145389,
            "key_press": -1,
            "trial_index": 0,
            "trial_index_global": 91
        },
        {
            "rt": 644,
            "trial_type": "single-stim",
            "stimulus": "<div class = centerbox><p class = stroop-stim style = \"color:red\">GREEN</p></div>",
            "internal_chunk_id": "0-0.1-18",
            "time_elapsed": 146226,
            "key_press": 82,
            "type": "stroop_practice",
            "trial_index": 0,
            "trial_index_global": 92
        },
        {
            "rt": -1,
            "trial_type": "single-stim",
            "stimulus": "",
            "internal_chunk_id": "0-0.1-18",
            "time_elapsed": 146478,
            "key_press": -1,
            "trial_index": 0,
            "trial_index_global": 93
        },
        {
            "rt": -1,
            "trial_type": "single-stim",
            "stimulus": "<div class = centerbox><p class = stroop-stim>correct</p></div>",
            "internal_chunk_id": "0-0.1-18",
            "time_elapsed": 146982,
            "key_press": -1,
            "trial_index": 0,
            "trial_index_global": 94
        },
        {
            "rt": -1,
            "trial_type": "single-stim",
            "stimulus": "",
            "internal_chunk_id": "0-0.1-18",
            "time_elapsed": 147234,
            "key_press": -1,
            "trial_index": 0,
            "trial_index_global": 95
        },
        {
            "rt": -1,
            "trial_type": "single-stim",
            "stimulus": "<div class = centerbox><p class = 'stroop-stim'>+</p></div>",
            "internal_chunk_id": "0-0.1-19",
            "time_elapsed": 147437,
            "key_press": -1,
            "trial_index": 0,
            "trial_index_global": 96
        },
        {
            "rt": 613,
            "trial_type": "single-stim",
            "stimulus": "<div class = centerbox><p class = stroop-stim style = \"color:red\">GREEN</p></div>",
            "internal_chunk_id": "0-0.1-19",
            "time_elapsed": 148172,
            "key_press": 82,
            "type": "stroop_practice",
            "trial_index": 0,
            "trial_index_global": 97
        },
        {
            "rt": -1,
            "trial_type": "single-stim",
            "stimulus": "",
            "internal_chunk_id": "0-0.1-19",
            "time_elapsed": 148424,
            "key_press": -1,
            "trial_index": 0,
            "trial_index_global": 98
        },
        {
            "rt": -1,
            "trial_type": "single-stim",
            "stimulus": "<div class = centerbox><p class = stroop-stim>correct</p></div>",
            "internal_chunk_id": "0-0.1-19",
            "time_elapsed": 148926,
            "key_press": -1,
            "trial_index": 0,
            "trial_index_global": 99
        },
        {
            "rt": -1,
            "trial_type": "single-stim",
            "stimulus": "",
            "internal_chunk_id": "0-0.1-19",
            "time_elapsed": 149178,
            "key_press": -1,
            "trial_index": 0,
            "trial_index_global": 100
        },
        {
            "rt": -1,
            "trial_type": "single-stim",
            "stimulus": "<div class = centerbox><p class = 'stroop-stim'>+</p></div>",
            "internal_chunk_id": "0-0.1-20",
            "time_elapsed": 149381,
            "key_press": -1,
            "trial_index": 0,
            "trial_index_global": 101
        },
        {
            "rt": 1596,
            "trial_type": "single-stim",
            "stimulus": "<div class = centerbox><p class = stroop-stim style = \"color:red\">RED</p></div>",
            "internal_chunk_id": "0-0.1-20",
            "time_elapsed": 151109,
            "key_press": 82,
            "type": "stroop_practice",
            "trial_index": 0,
            "trial_index_global": 102
        },
        {
            "rt": -1,
            "trial_type": "single-stim",
            "stimulus": "",
            "internal_chunk_id": "0-0.1-20",
            "time_elapsed": 151361,
            "key_press": -1,
            "trial_index": 0,
            "trial_index_global": 103
        },
        {
            "rt": -1,
            "trial_type": "single-stim",
            "stimulus": "<div class = centerbox><p class = stroop-stim>correct</p></div>",
            "internal_chunk_id": "0-0.1-20",
            "time_elapsed": 151865,
            "key_press": -1,
            "trial_index": 0,
            "trial_index_global": 104
        },
        {
            "rt": -1,
            "trial_type": "single-stim",
            "stimulus": "",
            "internal_chunk_id": "0-0.1-20",
            "time_elapsed": 152117,
            "key_press": -1,
            "trial_index": 0,
            "trial_index_global": 105
        },
        {
            "rt": -1,
            "trial_type": "single-stim",
            "stimulus": "<div class = centerbox><p class = 'stroop-stim'>+</p></div>",
            "internal_chunk_id": "0-0.1-21",
            "time_elapsed": 152321,
            "key_press": -1,
            "trial_index": 0,
            "trial_index_global": 106
        },
        {
            "rt": 663,
            "trial_type": "single-stim",
            "stimulus": "<div class = centerbox><p class = stroop-stim style = \"color:green\">GREEN</p></div>",
            "internal_chunk_id": "0-0.1-21",
            "time_elapsed": 153166,
            "key_press": 71,
            "type": "stroop_practice",
            "trial_index": 0,
            "trial_index_global": 107
        },
        {
            "rt": -1,
            "trial_type": "single-stim",
            "stimulus": "",
            "internal_chunk_id": "0-0.1-21",
            "time_elapsed": 153418,
            "key_press": -1,
            "trial_index": 0,
            "trial_index_global": 108
        },
        {
            "rt": -1,
            "trial_type": "single-stim",
            "stimulus": "<div class = centerbox><p class = stroop-stim>correct</p></div>",
            "internal_chunk_id": "0-0.1-21",
            "time_elapsed": 153924,
            "key_press": -1,
            "trial_index": 0,
            "trial_index_global": 109
        },
        {
            "rt": -1,
            "trial_type": "single-stim",
            "stimulus": "",
            "internal_chunk_id": "0-0.1-21",
            "time_elapsed": 154177,
            "key_press": -1,
            "trial_index": 0,
            "trial_index_global": 110
        },
        {
            "rt": -1,
            "trial_type": "single-stim",
            "stimulus": "<div class = centerbox><p class = 'stroop-stim'>+</p></div>",
            "internal_chunk_id": "0-0.1-22",
            "time_elapsed": 154382,
            "key_press": -1,
            "trial_index": 0,
            "trial_index_global": 111
        },
        {
            "rt": 510,
            "trial_type": "single-stim",
            "stimulus": "<div class = centerbox><p class = stroop-stim style = \"color:red\">BLUE</p></div>",
            "internal_chunk_id": "0-0.1-22",
            "time_elapsed": 155048,
            "key_press": 82,
            "type": "stroop_practice",
            "trial_index": 0,
            "trial_index_global": 112
        },
        {
            "rt": -1,
            "trial_type": "single-stim",
            "stimulus": "",
            "internal_chunk_id": "0-0.1-22",
            "time_elapsed": 155300,
            "key_press": -1,
            "trial_index": 0,
            "trial_index_global": 113
        },
        {
            "rt": -1,
            "trial_type": "single-stim",
            "stimulus": "<div class = centerbox><p class = stroop-stim>correct</p></div>",
            "internal_chunk_id": "0-0.1-22",
            "time_elapsed": 155802,
            "key_press": -1,
            "trial_index": 0,
            "trial_index_global": 114
        },
        {
            "rt": -1,
            "trial_type": "single-stim",
            "stimulus": "",
            "internal_chunk_id": "0-0.1-22",
            "time_elapsed": 156054,
            "key_press": -1,
            "trial_index": 0,
            "trial_index_global": 115
        },
        {
            "rt": -1,
            "trial_type": "single-stim",
            "stimulus": "<div class = centerbox><p class = 'stroop-stim'>+</p></div>",
            "internal_chunk_id": "0-0.1-23",
            "time_elapsed": 156257,
            "key_press": -1,
            "trial_index": 0,
            "trial_index_global": 116
        },
        {
            "rt": 743,
            "trial_type": "single-stim",
            "stimulus": "<div class = centerbox><p class = stroop-stim style = \"color:blue\">RED</p></div>",
            "internal_chunk_id": "0-0.1-23",
            "time_elapsed": 157180,
            "key_press": 66,
            "type": "stroop_practice",
            "trial_index": 0,
            "trial_index_global": 117
        },
        {
            "rt": -1,
            "trial_type": "single-stim",
            "stimulus": "",
            "internal_chunk_id": "0-0.1-23",
            "time_elapsed": 157432,
            "key_press": -1,
            "trial_index": 0,
            "trial_index_global": 118
        },
        {
            "rt": -1,
            "trial_type": "single-stim",
            "stimulus": "<div class = centerbox><p class = stroop-stim>correct</p></div>",
            "internal_chunk_id": "0-0.1-23",
            "time_elapsed": 157936,
            "key_press": -1,
            "trial_index": 0,
            "trial_index_global": 119
        },
        {
            "rt": -1,
            "trial_type": "single-stim",
            "stimulus": "",
            "internal_chunk_id": "0-0.1-23",
            "time_elapsed": 158188,
            "key_press": -1,
            "trial_index": 0,
            "trial_index_global": 120
        },
        {
            "rt": 5755,
            "trial_type": "text",
            "internal_chunk_id": "0-0",
            "time_elapsed": 164028,
            "key_press": 13,
            "trial_index": 0,
            "trial_index_global": 121
        },
        {
            "rt": -1,
            "trial_type": "single-stim",
            "stimulus": "<div class = centerbox><p class = 'stroop-stim'>+</p></div>",
            "internal_chunk_id": "0-0.3-0",
            "time_elapsed": 165231,
            "key_press": -1,
            "trial_index": 0,
            "trial_index_global": 122
        },
        {
            "rt": 727,
            "trial_type": "single-stim",
            "stimulus": "<div class = centerbox><p class = stroop-stim style = \"color:red\">RED</p></div>",
            "internal_chunk_id": "0-0.3-0",
            "time_elapsed": 166094,
            "key_press": 82,
            "type": "stroop_frequent",
            "trial_index": 0,
            "trial_index_global": 123
        },
        {
            "rt": -1,
            "trial_type": "single-stim",
            "stimulus": "",
            "internal_chunk_id": "0-0.3-0",
            "time_elapsed": 166346,
            "key_press": -1,
            "trial_index": 0,
            "trial_index_global": 124
        },
        {
            "rt": -1,
            "trial_type": "single-stim",
            "stimulus": "<div class = centerbox><p class = 'stroop-stim'>+</p></div>",
            "internal_chunk_id": "0-0.3-1",
            "time_elapsed": 166552,
            "key_press": -1,
            "trial_index": 0,
            "trial_index_global": 125
        },
        {
            "rt": 756,
            "trial_type": "single-stim",
            "stimulus": "<div class = centerbox><p class = stroop-stim style = \"color:red\">BLUE</p></div>",
            "internal_chunk_id": "0-0.3-1",
            "time_elapsed": 167445,
            "key_press": 82,
            "type": "stroop_frequent",
            "trial_index": 0,
            "trial_index_global": 126
        },
        {
            "rt": -1,
            "trial_type": "single-stim",
            "stimulus": "",
            "internal_chunk_id": "0-0.3-1",
            "time_elapsed": 167697,
            "key_press": -1,
            "trial_index": 0,
            "trial_index_global": 127
        },
        {
            "rt": -1,
            "trial_type": "single-stim",
            "stimulus": "<div class = centerbox><p class = 'stroop-stim'>+</p></div>",
            "internal_chunk_id": "0-0.3-2",
            "time_elapsed": 167901,
            "key_press": -1,
            "trial_index": 0,
            "trial_index_global": 128
        },
        {
            "rt": 569,
            "trial_type": "single-stim",
            "stimulus": "<div class = centerbox><p class = stroop-stim style = \"color:green\">GREEN</p></div>",
            "internal_chunk_id": "0-0.3-2",
            "time_elapsed": 168627,
            "key_press": 71,
            "type": "stroop_frequent",
            "trial_index": 0,
            "trial_index_global": 129
        },
        {
            "rt": -1,
            "trial_type": "single-stim",
            "stimulus": "",
            "internal_chunk_id": "0-0.3-2",
            "time_elapsed": 168878,
            "key_press": -1,
            "trial_index": 0,
            "trial_index_global": 130
        },
        {
            "rt": -1,
            "trial_type": "single-stim",
            "stimulus": "<div class = centerbox><p class = 'stroop-stim'>+</p></div>",
            "internal_chunk_id": "0-0.3-3",
            "time_elapsed": 169083,
            "key_press": -1,
            "trial_index": 0,
            "trial_index_global": 131
        },
        {
            "rt": 458,
            "trial_type": "single-stim",
            "stimulus": "<div class = centerbox><p class = stroop-stim style = \"color:green\">RED</p></div>",
            "internal_chunk_id": "0-0.3-3",
            "time_elapsed": 169708,
            "key_press": 71,
            "type": "stroop_frequent",
            "trial_index": 0,
            "trial_index_global": 132
        },
        {
            "rt": -1,
            "trial_type": "single-stim",
            "stimulus": "",
            "internal_chunk_id": "0-0.3-3",
            "time_elapsed": 169961,
            "key_press": -1,
            "trial_index": 0,
            "trial_index_global": 133
        },
        {
            "rt": -1,
            "trial_type": "single-stim",
            "stimulus": "<div class = centerbox><p class = 'stroop-stim'>+</p></div>",
            "internal_chunk_id": "0-0.3-4",
            "time_elapsed": 170165,
            "key_press": -1,
            "trial_index": 0,
            "trial_index_global": 134
        },
        {
            "rt": 471,
            "trial_type": "single-stim",
            "stimulus": "<div class = centerbox><p class = stroop-stim style = \"color:green\">RED</p></div>",
            "internal_chunk_id": "0-0.3-4",
            "time_elapsed": 170799,
            "key_press": 71,
            "type": "stroop_frequent",
            "trial_index": 0,
            "trial_index_global": 135
        },
        {
            "rt": -1,
            "trial_type": "single-stim",
            "stimulus": "",
            "internal_chunk_id": "0-0.3-4",
            "time_elapsed": 171050,
            "key_press": -1,
            "trial_index": 0,
            "trial_index_global": 136
        },
        {
            "rt": -1,
            "trial_type": "single-stim",
            "stimulus": "<div class = centerbox><p class = 'stroop-stim'>+</p></div>",
            "internal_chunk_id": "0-0.3-5",
            "time_elapsed": 171254,
            "key_press": -1,
            "trial_index": 0,
            "trial_index_global": 137
        },
        {
            "rt": 644,
            "trial_type": "single-stim",
            "stimulus": "<div class = centerbox><p class = stroop-stim style = \"color:blue\">RED</p></div>",
            "internal_chunk_id": "0-0.3-5",
            "time_elapsed": 172050,
            "key_press": 66,
            "type": "stroop_frequent",
            "trial_index": 0,
            "trial_index_global": 138
        },
        {
            "rt": -1,
            "trial_type": "single-stim",
            "stimulus": "",
            "internal_chunk_id": "0-0.3-5",
            "time_elapsed": 172301,
            "key_press": -1,
            "trial_index": 0,
            "trial_index_global": 139
        },
        {
            "rt": -1,
            "trial_type": "single-stim",
            "stimulus": "<div class = centerbox><p class = 'stroop-stim'>+</p></div>",
            "internal_chunk_id": "0-0.3-6",
            "time_elapsed": 172503,
            "key_press": -1,
            "trial_index": 0,
            "trial_index_global": 140
        },
        {
            "rt": 431,
            "trial_type": "single-stim",
            "stimulus": "<div class = centerbox><p class = stroop-stim style = \"color:blue\">RED</p></div>",
            "internal_chunk_id": "0-0.3-6",
            "time_elapsed": 173071,
            "key_press": 66,
            "type": "stroop_frequent",
            "trial_index": 0,
            "trial_index_global": 141
        },
        {
            "rt": -1,
            "trial_type": "single-stim",
            "stimulus": "",
            "internal_chunk_id": "0-0.3-6",
            "time_elapsed": 173323,
            "key_press": -1,
            "trial_index": 0,
            "trial_index_global": 142
        },
        {
            "rt": -1,
            "trial_type": "single-stim",
            "stimulus": "<div class = centerbox><p class = 'stroop-stim'>+</p></div>",
            "internal_chunk_id": "0-0.3-7",
            "time_elapsed": 173527,
            "key_press": -1,
            "trial_index": 0,
            "trial_index_global": 143
        },
        {
            "rt": 488,
            "trial_type": "single-stim",
            "stimulus": "<div class = centerbox><p class = stroop-stim style = \"color:green\">RED</p></div>",
            "internal_chunk_id": "0-0.3-7",
            "time_elapsed": 174177,
            "key_press": 71,
            "type": "stroop_frequent",
            "trial_index": 0,
            "trial_index_global": 144
        },
        {
            "rt": -1,
            "trial_type": "single-stim",
            "stimulus": "",
            "internal_chunk_id": "0-0.3-7",
            "time_elapsed": 174429,
            "key_press": -1,
            "trial_index": 0,
            "trial_index_global": 145
        },
        {
            "rt": -1,
            "trial_type": "single-stim",
            "stimulus": "<div class = centerbox><p class = 'stroop-stim'>+</p></div>",
            "internal_chunk_id": "0-0.3-8",
            "time_elapsed": 174634,
            "key_press": -1,
            "trial_index": 0,
            "trial_index_global": 146
        },
        {
            "rt": 651,
            "trial_type": "single-stim",
            "stimulus": "<div class = centerbox><p class = stroop-stim style = \"color:red\">BLUE</p></div>",
            "internal_chunk_id": "0-0.3-8",
            "time_elapsed": 175428,
            "key_press": 82,
            "type": "stroop_frequent",
            "trial_index": 0,
            "trial_index_global": 147
        },
        {
            "rt": -1,
            "trial_type": "single-stim",
            "stimulus": "",
            "internal_chunk_id": "0-0.3-8",
            "time_elapsed": 175681,
            "key_press": -1,
            "trial_index": 0,
            "trial_index_global": 148
        },
        {
            "rt": -1,
            "trial_type": "single-stim",
            "stimulus": "<div class = centerbox><p class = 'stroop-stim'>+</p></div>",
            "internal_chunk_id": "0-0.3-9",
            "time_elapsed": 175886,
            "key_press": -1,
            "trial_index": 0,
            "trial_index_global": 149
        },
        {
            "rt": 527,
            "trial_type": "single-stim",
            "stimulus": "<div class = centerbox><p class = stroop-stim style = \"color:red\">GREEN</p></div>",
            "internal_chunk_id": "0-0.3-9",
            "time_elapsed": 176560,
            "key_press": 82,
            "type": "stroop_frequent",
            "trial_index": 0,
            "trial_index_global": 150
        },
        {
            "rt": -1,
            "trial_type": "single-stim",
            "stimulus": "",
            "internal_chunk_id": "0-0.3-9",
            "time_elapsed": 176812,
            "key_press": -1,
            "trial_index": 0,
            "trial_index_global": 151
        },
        {
            "rt": -1,
            "trial_type": "single-stim",
            "stimulus": "<div class = centerbox><p class = 'stroop-stim'>+</p></div>",
            "internal_chunk_id": "0-0.3-10",
            "time_elapsed": 177016,
            "key_press": -1,
            "trial_index": 0,
            "trial_index_global": 152
        },
        {
            "rt": 964,
            "trial_type": "single-stim",
            "stimulus": "<div class = centerbox><p class = stroop-stim style = \"color:green\">BLUE</p></div>",
            "internal_chunk_id": "0-0.3-10",
            "time_elapsed": 178137,
            "key_press": 71,
            "type": "stroop_frequent",
            "trial_index": 0,
            "trial_index_global": 153
        },
        {
            "rt": -1,
            "trial_type": "single-stim",
            "stimulus": "",
            "internal_chunk_id": "0-0.3-10",
            "time_elapsed": 178389,
            "key_press": -1,
            "trial_index": 0,
            "trial_index_global": 154
        },
        {
            "rt": -1,
            "trial_type": "single-stim",
            "stimulus": "<div class = centerbox><p class = 'stroop-stim'>+</p></div>",
            "internal_chunk_id": "0-0.3-11",
            "time_elapsed": 178593,
            "key_press": -1,
            "trial_index": 0,
            "trial_index_global": 155
        },
        {
            "rt": 2891,
            "trial_type": "single-stim",
            "stimulus": "<div class = centerbox><p class = stroop-stim style = \"color:blue\">GREEN</p></div>",
            "internal_chunk_id": "0-0.3-11",
            "time_elapsed": 181595,
            "key_press": 66,
            "type": "stroop_frequent",
            "trial_index": 0,
            "trial_index_global": 156
        },
        {
            "rt": -1,
            "trial_type": "single-stim",
            "stimulus": "",
            "internal_chunk_id": "0-0.3-11",
            "time_elapsed": 181847,
            "key_press": -1,
            "trial_index": 0,
            "trial_index_global": 157
        },
        {
            "rt": -1,
            "trial_type": "single-stim",
            "stimulus": "<div class = centerbox><p class = 'stroop-stim'>+</p></div>",
            "internal_chunk_id": "0-0.3-12",
            "time_elapsed": 182051,
            "key_press": -1,
            "trial_index": 0,
            "trial_index_global": 158
        },
        {
            "rt": 459,
            "trial_type": "single-stim",
            "stimulus": "<div class = centerbox><p class = stroop-stim style = \"color:green\">BLUE</p></div>",
            "internal_chunk_id": "0-0.3-12",
            "time_elapsed": 182657,
            "key_press": 71,
            "type": "stroop_frequent",
            "trial_index": 0,
            "trial_index_global": 159
        },
        {
            "rt": -1,
            "trial_type": "single-stim",
            "stimulus": "",
            "internal_chunk_id": "0-0.3-12",
            "time_elapsed": 182909,
            "key_press": -1,
            "trial_index": 0,
            "trial_index_global": 160
        },
        {
            "rt": -1,
            "trial_type": "single-stim",
            "stimulus": "<div class = centerbox><p class = 'stroop-stim'>+</p></div>",
            "internal_chunk_id": "0-0.3-13",
            "time_elapsed": 183120,
            "key_press": -1,
            "trial_index": 0,
            "trial_index_global": 161
        },
        {
            "rt": 506,
            "trial_type": "single-stim",
            "stimulus": "<div class = centerbox><p class = stroop-stim style = \"color:red\">GREEN</p></div>",
            "internal_chunk_id": "0-0.3-13",
            "time_elapsed": 183789,
            "key_press": 82,
            "type": "stroop_frequent",
            "trial_index": 0,
            "trial_index_global": 162
        },
        {
            "rt": -1,
            "trial_type": "single-stim",
            "stimulus": "",
            "internal_chunk_id": "0-0.3-13",
            "time_elapsed": 184041,
            "key_press": -1,
            "trial_index": 0,
            "trial_index_global": 163
        },
        {
            "rt": -1,
            "trial_type": "single-stim",
            "stimulus": "<div class = centerbox><p class = 'stroop-stim'>+</p></div>",
            "internal_chunk_id": "0-0.3-14",
            "time_elapsed": 184245,
            "key_press": -1,
            "trial_index": 0,
            "trial_index_global": 164
        },
        {
            "rt": 650,
            "trial_type": "single-stim",
            "stimulus": "<div class = centerbox><p class = stroop-stim style = \"color:blue\">RED</p></div>",
            "internal_chunk_id": "0-0.3-14",
            "time_elapsed": 185034,
            "key_press": 66,
            "type": "stroop_frequent",
            "trial_index": 0,
            "trial_index_global": 165
        },
        {
            "rt": -1,
            "trial_type": "single-stim",
            "stimulus": "",
            "internal_chunk_id": "0-0.3-14",
            "time_elapsed": 185286,
            "key_press": -1,
            "trial_index": 0,
            "trial_index_global": 166
        },
        {
            "rt": -1,
            "trial_type": "single-stim",
            "stimulus": "<div class = centerbox><p class = 'stroop-stim'>+</p></div>",
            "internal_chunk_id": "0-0.3-15",
            "time_elapsed": 185491,
            "key_press": -1,
            "trial_index": 0,
            "trial_index_global": 167
        },
        {
            "rt": 828,
            "trial_type": "single-stim",
            "stimulus": "<div class = centerbox><p class = stroop-stim style = \"color:red\">RED</p></div>",
            "internal_chunk_id": "0-0.3-15",
            "time_elapsed": 186486,
            "key_press": 82,
            "type": "stroop_frequent",
            "trial_index": 0,
            "trial_index_global": 168
        },
        {
            "rt": -1,
            "trial_type": "single-stim",
            "stimulus": "",
            "internal_chunk_id": "0-0.3-15",
            "time_elapsed": 186738,
            "key_press": -1,
            "trial_index": 0,
            "trial_index_global": 169
        },
        {
            "rt": -1,
            "trial_type": "single-stim",
            "stimulus": "<div class = centerbox><p class = 'stroop-stim'>+</p></div>",
            "internal_chunk_id": "0-0.3-16",
            "time_elapsed": 186942,
            "key_press": -1,
            "trial_index": 0,
            "trial_index_global": 170
        },
        {
            "rt": 1349,
            "trial_type": "single-stim",
            "stimulus": "<div class = centerbox><p class = stroop-stim style = \"color:blue\">BLUE</p></div>",
            "internal_chunk_id": "0-0.3-16",
            "time_elapsed": 188388,
            "key_press": 66,
            "type": "stroop_frequent",
            "trial_index": 0,
            "trial_index_global": 171
        },
        {
            "rt": -1,
            "trial_type": "single-stim",
            "stimulus": "",
            "internal_chunk_id": "0-0.3-16",
            "time_elapsed": 188640,
            "key_press": -1,
            "trial_index": 0,
            "trial_index_global": 172
        },
        {
            "rt": -1,
            "trial_type": "single-stim",
            "stimulus": "<div class = centerbox><p class = 'stroop-stim'>+</p></div>",
            "internal_chunk_id": "0-0.3-17",
            "time_elapsed": 188844,
            "key_press": -1,
            "trial_index": 0,
            "trial_index_global": 173
        },
        {
            "rt": 555,
            "trial_type": "single-stim",
            "stimulus": "<div class = centerbox><p class = stroop-stim style = \"color:green\">BLUE</p></div>",
            "internal_chunk_id": "0-0.3-17",
            "time_elapsed": 189545,
            "key_press": 71,
            "type": "stroop_frequent",
            "trial_index": 0,
            "trial_index_global": 174
        },
        {
            "rt": -1,
            "trial_type": "single-stim",
            "stimulus": "",
            "internal_chunk_id": "0-0.3-17",
            "time_elapsed": 189798,
            "key_press": -1,
            "trial_index": 0,
            "trial_index_global": 175
        },
        {
            "rt": -1,
            "trial_type": "single-stim",
            "stimulus": "<div class = centerbox><p class = 'stroop-stim'>+</p></div>",
            "internal_chunk_id": "0-0.3-18",
            "time_elapsed": 190003,
            "key_press": -1,
            "trial_index": 0,
            "trial_index_global": 176
        },
        {
            "rt": 740,
            "trial_type": "single-stim",
            "stimulus": "<div class = centerbox><p class = stroop-stim style = \"color:blue\">BLUE</p></div>",
            "internal_chunk_id": "0-0.3-18",
            "time_elapsed": 190887,
            "key_press": 66,
            "type": "stroop_frequent",
            "trial_index": 0,
            "trial_index_global": 177
        },
        {
            "rt": -1,
            "trial_type": "single-stim",
            "stimulus": "",
            "internal_chunk_id": "0-0.3-18",
            "time_elapsed": 191139,
            "key_press": -1,
            "trial_index": 0,
            "trial_index_global": 178
        },
        {
            "rt": -1,
            "trial_type": "single-stim",
            "stimulus": "<div class = centerbox><p class = 'stroop-stim'>+</p></div>",
            "internal_chunk_id": "0-0.3-19",
            "time_elapsed": 191343,
            "key_press": -1,
            "trial_index": 0,
            "trial_index_global": 179
        },
        {
            "rt": 563,
            "trial_type": "single-stim",
            "stimulus": "<div class = centerbox><p class = stroop-stim style = \"color:red\">GREEN</p></div>",
            "internal_chunk_id": "0-0.3-19",
            "time_elapsed": 192031,
            "key_press": 82,
            "type": "stroop_frequent",
            "trial_index": 0,
            "trial_index_global": 180
        },
        {
            "rt": -1,
            "trial_type": "single-stim",
            "stimulus": "",
            "internal_chunk_id": "0-0.3-19",
            "time_elapsed": 192283,
            "key_press": -1,
            "trial_index": 0,
            "trial_index_global": 181
        },
        {
            "rt": -1,
            "trial_type": "single-stim",
            "stimulus": "<div class = centerbox><p class = 'stroop-stim'>+</p></div>",
            "internal_chunk_id": "0-0.3-20",
            "time_elapsed": 192488,
            "key_press": -1,
            "trial_index": 0,
            "trial_index_global": 182
        },
        {
            "rt": 623,
            "trial_type": "single-stim",
            "stimulus": "<div class = centerbox><p class = stroop-stim style = \"color:red\">RED</p></div>",
            "internal_chunk_id": "0-0.3-20",
            "time_elapsed": 193305,
            "key_press": 82,
            "type": "stroop_frequent",
            "trial_index": 0,
            "trial_index_global": 183
        },
        {
            "rt": -1,
            "trial_type": "single-stim",
            "stimulus": "",
            "internal_chunk_id": "0-0.3-20",
            "time_elapsed": 193557,
            "key_press": -1,
            "trial_index": 0,
            "trial_index_global": 184
        },
        {
            "rt": -1,
            "trial_type": "single-stim",
            "stimulus": "<div class = centerbox><p class = 'stroop-stim'>+</p></div>",
            "internal_chunk_id": "0-0.3-21",
            "time_elapsed": 193762,
            "key_press": -1,
            "trial_index": 0,
            "trial_index_global": 185
        },
        {
            "rt": 495,
            "trial_type": "single-stim",
            "stimulus": "<div class = centerbox><p class = stroop-stim style = \"color:green\">GREEN</p></div>",
            "internal_chunk_id": "0-0.3-21",
            "time_elapsed": 194414,
            "key_press": 71,
            "type": "stroop_frequent",
            "trial_index": 0,
            "trial_index_global": 186
        },
        {
            "rt": -1,
            "trial_type": "single-stim",
            "stimulus": "",
            "internal_chunk_id": "0-0.3-21",
            "time_elapsed": 194666,
            "key_press": -1,
            "trial_index": 0,
            "trial_index_global": 187
        },
        {
            "rt": -1,
            "trial_type": "single-stim",
            "stimulus": "<div class = centerbox><p class = 'stroop-stim'>+</p></div>",
            "internal_chunk_id": "0-0.3-22",
            "time_elapsed": 194870,
            "key_press": -1,
            "trial_index": 0,
            "trial_index_global": 188
        },
        {
            "rt": 1045,
            "trial_type": "single-stim",
            "stimulus": "<div class = centerbox><p class = stroop-stim style = \"color:red\">RED</p></div>",
            "internal_chunk_id": "0-0.3-22",
            "time_elapsed": 196041,
            "key_press": 82,
            "type": "stroop_frequent",
            "trial_index": 0,
            "trial_index_global": 189
        },
        {
            "rt": -1,
            "trial_type": "single-stim",
            "stimulus": "",
            "internal_chunk_id": "0-0.3-22",
            "time_elapsed": 196293,
            "key_press": -1,
            "trial_index": 0,
            "trial_index_global": 190
        },
        {
            "rt": -1,
            "trial_type": "single-stim",
            "stimulus": "<div class = centerbox><p class = 'stroop-stim'>+</p></div>",
            "internal_chunk_id": "0-0.3-23",
            "time_elapsed": 196497,
            "key_press": -1,
            "trial_index": 0,
            "trial_index_global": 191
        },
        {
            "rt": 694,
            "trial_type": "single-stim",
            "stimulus": "<div class = centerbox><p class = stroop-stim style = \"color:green\">GREEN</p></div>",
            "internal_chunk_id": "0-0.3-23",
            "time_elapsed": 197343,
            "key_press": 71,
            "type": "stroop_frequent",
            "trial_index": 0,
            "trial_index_global": 192
        },
        {
            "rt": -1,
            "trial_type": "single-stim",
            "stimulus": "",
            "internal_chunk_id": "0-0.3-23",
            "time_elapsed": 197594,
            "key_press": -1,
            "trial_index": 0,
            "trial_index_global": 193
        },
        {
            "rt": -1,
            "trial_type": "single-stim",
            "stimulus": "<div class = centerbox><p class = 'stroop-stim'>+</p></div>",
            "internal_chunk_id": "0-0.3-24",
            "time_elapsed": 197799,
            "key_press": -1,
            "trial_index": 0,
            "trial_index_global": 194
        },
        {
            "rt": 544,
            "trial_type": "single-stim",
            "stimulus": "<div class = centerbox><p class = stroop-stim style = \"color:red\">BLUE</p></div>",
            "internal_chunk_id": "0-0.3-24",
            "time_elapsed": 198493,
            "key_press": 82,
            "type": "stroop_frequent",
            "trial_index": 0,
            "trial_index_global": 195
        },
        {
            "rt": -1,
            "trial_type": "single-stim",
            "stimulus": "",
            "internal_chunk_id": "0-0.3-24",
            "time_elapsed": 198745,
            "key_press": -1,
            "trial_index": 0,
            "trial_index_global": 196
        },
        {
            "rt": -1,
            "trial_type": "single-stim",
            "stimulus": "<div class = centerbox><p class = 'stroop-stim'>+</p></div>",
            "internal_chunk_id": "0-0.3-25",
            "time_elapsed": 198948,
            "key_press": -1,
            "trial_index": 0,
            "trial_index_global": 197
        },
        {
            "rt": 445,
            "trial_type": "single-stim",
            "stimulus": "<div class = centerbox><p class = stroop-stim style = \"color:red\">RED</p></div>",
            "internal_chunk_id": "0-0.3-25",
            "time_elapsed": 199565,
            "key_press": 82,
            "type": "stroop_frequent",
            "trial_index": 0,
            "trial_index_global": 198
        },
        {
            "rt": -1,
            "trial_type": "single-stim",
            "stimulus": "",
            "internal_chunk_id": "0-0.3-25",
            "time_elapsed": 199826,
            "key_press": -1,
            "trial_index": 0,
            "trial_index_global": 199
        },
        {
            "rt": -1,
            "trial_type": "single-stim",
            "stimulus": "<div class = centerbox><p class = 'stroop-stim'>+</p></div>",
            "internal_chunk_id": "0-0.3-26",
            "time_elapsed": 200031,
            "key_press": -1,
            "trial_index": 0,
            "trial_index_global": 200
        },
        {
            "rt": 599,
            "trial_type": "single-stim",
            "stimulus": "<div class = centerbox><p class = stroop-stim style = \"color:blue\">GREEN</p></div>",
            "internal_chunk_id": "0-0.3-26",
            "time_elapsed": 200797,
            "key_press": 66,
            "type": "stroop_frequent",
            "trial_index": 0,
            "trial_index_global": 201
        },
        {
            "rt": -1,
            "trial_type": "single-stim",
            "stimulus": "",
            "internal_chunk_id": "0-0.3-26",
            "time_elapsed": 201048,
            "key_press": -1,
            "trial_index": 0,
            "trial_index_global": 202
        },
        {
            "rt": -1,
            "trial_type": "single-stim",
            "stimulus": "<div class = centerbox><p class = 'stroop-stim'>+</p></div>",
            "internal_chunk_id": "0-0.3-27",
            "time_elapsed": 201253,
            "key_press": -1,
            "trial_index": 0,
            "trial_index_global": 203
        },
        {
            "rt": 598,
            "trial_type": "single-stim",
            "stimulus": "<div class = centerbox><p class = stroop-stim style = \"color:blue\">GREEN</p></div>",
            "internal_chunk_id": "0-0.3-27",
            "time_elapsed": 202008,
            "key_press": 66,
            "type": "stroop_frequent",
            "trial_index": 0,
            "trial_index_global": 204
        },
        {
            "rt": -1,
            "trial_type": "single-stim",
            "stimulus": "",
            "internal_chunk_id": "0-0.3-27",
            "time_elapsed": 202260,
            "key_press": -1,
            "trial_index": 0,
            "trial_index_global": 205
        },
        {
            "rt": -1,
            "trial_type": "single-stim",
            "stimulus": "<div class = centerbox><p class = 'stroop-stim'>+</p></div>",
            "internal_chunk_id": "0-0.3-28",
            "time_elapsed": 202465,
            "key_press": -1,
            "trial_index": 0,
            "trial_index_global": 206
        },
        {
            "rt": 602,
            "trial_type": "single-stim",
            "stimulus": "<div class = centerbox><p class = stroop-stim style = \"color:green\">RED</p></div>",
            "internal_chunk_id": "0-0.3-28",
            "time_elapsed": 203229,
            "key_press": 71,
            "type": "stroop_frequent",
            "trial_index": 0,
            "trial_index_global": 207
        },
        {
            "rt": -1,
            "trial_type": "single-stim",
            "stimulus": "",
            "internal_chunk_id": "0-0.3-28",
            "time_elapsed": 203481,
            "key_press": -1,
            "trial_index": 0,
            "trial_index_global": 208
        },
        {
            "rt": -1,
            "trial_type": "single-stim",
            "stimulus": "<div class = centerbox><p class = 'stroop-stim'>+</p></div>",
            "internal_chunk_id": "0-0.3-29",
            "time_elapsed": 203687,
            "key_press": -1,
            "trial_index": 0,
            "trial_index_global": 209
        },
        {
            "rt": 706,
            "trial_type": "single-stim",
            "stimulus": "<div class = centerbox><p class = stroop-stim style = \"color:blue\">BLUE</p></div>",
            "internal_chunk_id": "0-0.3-29",
            "time_elapsed": 204526,
            "key_press": 71,
            "type": "stroop_frequent",
            "trial_index": 0,
            "trial_index_global": 210
        },
        {
            "rt": -1,
            "trial_type": "single-stim",
            "stimulus": "",
            "internal_chunk_id": "0-0.3-29",
            "time_elapsed": 204778,
            "key_press": -1,
            "trial_index": 0,
            "trial_index_global": 211
        },
        {
            "rt": -1,
            "trial_type": "single-stim",
            "stimulus": "<div class = centerbox><p class = 'stroop-stim'>+</p></div>",
            "internal_chunk_id": "0-0.3-30",
            "time_elapsed": 204983,
            "key_press": -1,
            "trial_index": 0,
            "trial_index_global": 212
        },
        {
            "rt": 1478,
            "trial_type": "single-stim",
            "stimulus": "<div class = centerbox><p class = stroop-stim style = \"color:blue\">GREEN</p></div>",
            "internal_chunk_id": "0-0.3-30",
            "time_elapsed": 206608,
            "key_press": 66,
            "type": "stroop_frequent",
            "trial_index": 0,
            "trial_index_global": 213
        },
        {
            "rt": -1,
            "trial_type": "single-stim",
            "stimulus": "",
            "internal_chunk_id": "0-0.3-30",
            "time_elapsed": 206860,
            "key_press": -1,
            "trial_index": 0,
            "trial_index_global": 214
        },
        {
            "rt": -1,
            "trial_type": "single-stim",
            "stimulus": "<div class = centerbox><p class = 'stroop-stim'>+</p></div>",
            "internal_chunk_id": "0-0.3-31",
            "time_elapsed": 207065,
            "key_press": -1,
            "trial_index": 0,
            "trial_index_global": 215
        },
        {
            "rt": 793,
            "trial_type": "single-stim",
            "stimulus": "<div class = centerbox><p class = stroop-stim style = \"color:green\">RED</p></div>",
            "internal_chunk_id": "0-0.3-31",
            "time_elapsed": 207994,
            "key_press": 71,
            "type": "stroop_frequent",
            "trial_index": 0,
            "trial_index_global": 216
        },
        {
            "rt": -1,
            "trial_type": "single-stim",
            "stimulus": "",
            "internal_chunk_id": "0-0.3-31",
            "time_elapsed": 208246,
            "key_press": -1,
            "trial_index": 0,
            "trial_index_global": 217
        },
        {
            "rt": -1,
            "trial_type": "single-stim",
            "stimulus": "<div class = centerbox><p class = 'stroop-stim'>+</p></div>",
            "internal_chunk_id": "0-0.3-32",
            "time_elapsed": 208451,
            "key_press": -1,
            "trial_index": 0,
            "trial_index_global": 218
        },
        {
            "rt": 547,
            "trial_type": "single-stim",
            "stimulus": "<div class = centerbox><p class = stroop-stim style = \"color:blue\">GREEN</p></div>",
            "internal_chunk_id": "0-0.3-32",
            "time_elapsed": 209130,
            "key_press": 66,
            "type": "stroop_frequent",
            "trial_index": 0,
            "trial_index_global": 219
        },
        {
            "rt": -1,
            "trial_type": "single-stim",
            "stimulus": "",
            "internal_chunk_id": "0-0.3-32",
            "time_elapsed": 209382,
            "key_press": -1,
            "trial_index": 0,
            "trial_index_global": 220
        },
        {
            "rt": -1,
            "trial_type": "single-stim",
            "stimulus": "<div class = centerbox><p class = 'stroop-stim'>+</p></div>",
            "internal_chunk_id": "0-0.3-33",
            "time_elapsed": 209588,
            "key_press": -1,
            "trial_index": 0,
            "trial_index_global": 221
        },
        {
            "rt": 652,
            "trial_type": "single-stim",
            "stimulus": "<div class = centerbox><p class = stroop-stim style = \"color:red\">BLUE</p></div>",
            "internal_chunk_id": "0-0.3-33",
            "time_elapsed": 210392,
            "key_press": 82,
            "type": "stroop_frequent",
            "trial_index": 0,
            "trial_index_global": 222
        },
        {
            "rt": -1,
            "trial_type": "single-stim",
            "stimulus": "",
            "internal_chunk_id": "0-0.3-33",
            "time_elapsed": 210644,
            "key_press": -1,
            "trial_index": 0,
            "trial_index_global": 223
        },
        {
            "rt": -1,
            "trial_type": "single-stim",
            "stimulus": "<div class = centerbox><p class = 'stroop-stim'>+</p></div>",
            "internal_chunk_id": "0-0.3-34",
            "time_elapsed": 210849,
            "key_press": -1,
            "trial_index": 0,
            "trial_index_global": 224
        },
        {
            "rt": 477,
            "trial_type": "single-stim",
            "stimulus": "<div class = centerbox><p class = stroop-stim style = \"color:red\">GREEN</p></div>",
            "internal_chunk_id": "0-0.3-34",
            "time_elapsed": 211483,
            "key_press": 82,
            "type": "stroop_frequent",
            "trial_index": 0,
            "trial_index_global": 225
        },
        {
            "rt": -1,
            "trial_type": "single-stim",
            "stimulus": "",
            "internal_chunk_id": "0-0.3-34",
            "time_elapsed": 211736,
            "key_press": -1,
            "trial_index": 0,
            "trial_index_global": 226
        },
        {
            "rt": -1,
            "trial_type": "single-stim",
            "stimulus": "<div class = centerbox><p class = 'stroop-stim'>+</p></div>",
            "internal_chunk_id": "0-0.3-35",
            "time_elapsed": 211941,
            "key_press": -1,
            "trial_index": 0,
            "trial_index_global": 227
        },
        {
            "rt": 457,
            "trial_type": "single-stim",
            "stimulus": "<div class = centerbox><p class = stroop-stim style = \"color:red\">GREEN</p></div>",
            "internal_chunk_id": "0-0.3-35",
            "time_elapsed": 212556,
            "key_press": 82,
            "type": "stroop_frequent",
            "trial_index": 0,
            "trial_index_global": 228
        },
        {
            "rt": -1,
            "trial_type": "single-stim",
            "stimulus": "",
            "internal_chunk_id": "0-0.3-35",
            "time_elapsed": 212808,
            "key_press": -1,
            "trial_index": 0,
            "trial_index_global": 229
        },
        {
            "rt": -1,
            "trial_type": "single-stim",
            "stimulus": "<div class = centerbox><p class = 'stroop-stim'>+</p></div>",
            "internal_chunk_id": "0-0.3-36",
            "time_elapsed": 213013,
            "key_press": -1,
            "trial_index": 0,
            "trial_index_global": 230
        },
        {
            "rt": 532,
            "trial_type": "single-stim",
            "stimulus": "<div class = centerbox><p class = stroop-stim style = \"color:green\">RED</p></div>",
            "internal_chunk_id": "0-0.3-36",
            "time_elapsed": 213691,
            "key_press": 71,
            "type": "stroop_frequent",
            "trial_index": 0,
            "trial_index_global": 231
        },
        {
            "rt": -1,
            "trial_type": "single-stim",
            "stimulus": "",
            "internal_chunk_id": "0-0.3-36",
            "time_elapsed": 213943,
            "key_press": -1,
            "trial_index": 0,
            "trial_index_global": 232
        },
        {
            "rt": -1,
            "trial_type": "single-stim",
            "stimulus": "<div class = centerbox><p class = 'stroop-stim'>+</p></div>",
            "internal_chunk_id": "0-0.3-37",
            "time_elapsed": 214156,
            "key_press": -1,
            "trial_index": 0,
            "trial_index_global": 233
        },
        {
            "rt": 545,
            "trial_type": "single-stim",
            "stimulus": "<div class = centerbox><p class = stroop-stim style = \"color:green\">RED</p></div>",
            "internal_chunk_id": "0-0.3-37",
            "time_elapsed": 214868,
            "key_press": 71,
            "type": "stroop_frequent",
            "trial_index": 0,
            "trial_index_global": 234
        },
        {
            "rt": -1,
            "trial_type": "single-stim",
            "stimulus": "",
            "internal_chunk_id": "0-0.3-37",
            "time_elapsed": 215120,
            "key_press": -1,
            "trial_index": 0,
            "trial_index_global": 235
        },
        {
            "rt": -1,
            "trial_type": "single-stim",
            "stimulus": "<div class = centerbox><p class = 'stroop-stim'>+</p></div>",
            "internal_chunk_id": "0-0.3-38",
            "time_elapsed": 215327,
            "key_press": -1,
            "trial_index": 0,
            "trial_index_global": 236
        },
        {
            "rt": 650,
            "trial_type": "single-stim",
            "stimulus": "<div class = centerbox><p class = stroop-stim style = \"color:red\">GREEN</p></div>",
            "internal_chunk_id": "0-0.3-38",
            "time_elapsed": 216099,
            "key_press": 82,
            "type": "stroop_frequent",
            "trial_index": 0,
            "trial_index_global": 237
        },
        {
            "rt": -1,
            "trial_type": "single-stim",
            "stimulus": "",
            "internal_chunk_id": "0-0.3-38",
            "time_elapsed": 216351,
            "key_press": -1,
            "trial_index": 0,
            "trial_index_global": 238
        },
        {
            "rt": -1,
            "trial_type": "single-stim",
            "stimulus": "<div class = centerbox><p class = 'stroop-stim'>+</p></div>",
            "internal_chunk_id": "0-0.3-39",
            "time_elapsed": 216556,
            "key_press": -1,
            "trial_index": 0,
            "trial_index_global": 239
        },
        {
            "rt": 643,
            "trial_type": "single-stim",
            "stimulus": "<div class = centerbox><p class = stroop-stim style = \"color:green\">RED</p></div>",
            "internal_chunk_id": "0-0.3-39",
            "time_elapsed": 217351,
            "key_press": 71,
            "type": "stroop_frequent",
            "trial_index": 0,
            "trial_index_global": 240
        },
        {
            "rt": -1,
            "trial_type": "single-stim",
            "stimulus": "",
            "internal_chunk_id": "0-0.3-39",
            "time_elapsed": 217603,
            "key_press": -1,
            "trial_index": 0,
            "trial_index_global": 241
        },
        {
            "rt": -1,
            "trial_type": "single-stim",
            "stimulus": "<div class = centerbox><p class = 'stroop-stim'>+</p></div>",
            "internal_chunk_id": "0-0.3-40",
            "time_elapsed": 217809,
            "key_press": -1,
            "trial_index": 0,
            "trial_index_global": 242
        },
        {
            "rt": 606,
            "trial_type": "single-stim",
            "stimulus": "<div class = centerbox><p class = stroop-stim style = \"color:red\">GREEN</p></div>",
            "internal_chunk_id": "0-0.3-40",
            "time_elapsed": 218567,
            "key_press": 82,
            "type": "stroop_frequent",
            "trial_index": 0,
            "trial_index_global": 243
        },
        {
            "rt": -1,
            "trial_type": "single-stim",
            "stimulus": "",
            "internal_chunk_id": "0-0.3-40",
            "time_elapsed": 218820,
            "key_press": -1,
            "trial_index": 0,
            "trial_index_global": 244
        },
        {
            "rt": -1,
            "trial_type": "single-stim",
            "stimulus": "<div class = centerbox><p class = 'stroop-stim'>+</p></div>",
            "internal_chunk_id": "0-0.3-41",
            "time_elapsed": 219025,
            "key_press": -1,
            "trial_index": 0,
            "trial_index_global": 245
        },
        {
            "rt": 502,
            "trial_type": "single-stim",
            "stimulus": "<div class = centerbox><p class = stroop-stim style = \"color:blue\">GREEN</p></div>",
            "internal_chunk_id": "0-0.3-41",
            "time_elapsed": 219648,
            "key_press": 66,
            "type": "stroop_frequent",
            "trial_index": 0,
            "trial_index_global": 246
        },
        {
            "rt": -1,
            "trial_type": "single-stim",
            "stimulus": "",
            "internal_chunk_id": "0-0.3-41",
            "time_elapsed": 219900,
            "key_press": -1,
            "trial_index": 0,
            "trial_index_global": 247
        },
        {
            "rt": -1,
            "trial_type": "single-stim",
            "stimulus": "<div class = centerbox><p class = 'stroop-stim'>+</p></div>",
            "internal_chunk_id": "0-0.3-42",
            "time_elapsed": 220109,
            "key_press": -1,
            "trial_index": 0,
            "trial_index_global": 248
        },
        {
            "rt": 513,
            "trial_type": "single-stim",
            "stimulus": "<div class = centerbox><p class = stroop-stim style = \"color:blue\">RED</p></div>",
            "internal_chunk_id": "0-0.3-42",
            "time_elapsed": 220754,
            "key_press": 66,
            "type": "stroop_frequent",
            "trial_index": 0,
            "trial_index_global": 249
        },
        {
            "rt": -1,
            "trial_type": "single-stim",
            "stimulus": "",
            "internal_chunk_id": "0-0.3-42",
            "time_elapsed": 221006,
            "key_press": -1,
            "trial_index": 0,
            "trial_index_global": 250
        },
        {
            "rt": -1,
            "trial_type": "single-stim",
            "stimulus": "<div class = centerbox><p class = 'stroop-stim'>+</p></div>",
            "internal_chunk_id": "0-0.3-43",
            "time_elapsed": 221211,
            "key_press": -1,
            "trial_index": 0,
            "trial_index_global": 251
        },
        {
            "rt": 718,
            "trial_type": "single-stim",
            "stimulus": "<div class = centerbox><p class = stroop-stim style = \"color:red\">BLUE</p></div>",
            "internal_chunk_id": "0-0.3-43",
            "time_elapsed": 222096,
            "key_press": 82,
            "type": "stroop_frequent",
            "trial_index": 0,
            "trial_index_global": 252
        },
        {
            "rt": -1,
            "trial_type": "single-stim",
            "stimulus": "",
            "internal_chunk_id": "0-0.3-43",
            "time_elapsed": 222348,
            "key_press": -1,
            "trial_index": 0,
            "trial_index_global": 253
        },
        {
            "rt": -1,
            "trial_type": "single-stim",
            "stimulus": "<div class = centerbox><p class = 'stroop-stim'>+</p></div>",
            "internal_chunk_id": "0-0.3-44",
            "time_elapsed": 222554,
            "key_press": -1,
            "trial_index": 0,
            "trial_index_global": 254
        },
        {
            "rt": 501,
            "trial_type": "single-stim",
            "stimulus": "<div class = centerbox><p class = stroop-stim style = \"color:green\">GREEN</p></div>",
            "internal_chunk_id": "0-0.3-44",
            "time_elapsed": 223217,
            "key_press": 71,
            "type": "stroop_frequent",
            "trial_index": 0,
            "trial_index_global": 255
        },
        {
            "rt": -1,
            "trial_type": "single-stim",
            "stimulus": "",
            "internal_chunk_id": "0-0.3-44",
            "time_elapsed": 223469,
            "key_press": -1,
            "trial_index": 0,
            "trial_index_global": 256
        },
        {
            "rt": -1,
            "trial_type": "single-stim",
            "stimulus": "<div class = centerbox><p class = 'stroop-stim'>+</p></div>",
            "internal_chunk_id": "0-0.3-45",
            "time_elapsed": 223675,
            "key_press": -1,
            "trial_index": 0,
            "trial_index_global": 257
        },
        {
            "rt": 1364,
            "trial_type": "single-stim",
            "stimulus": "<div class = centerbox><p class = stroop-stim style = \"color:red\">BLUE</p></div>",
            "internal_chunk_id": "0-0.3-45",
            "time_elapsed": 225179,
            "key_press": 82,
            "type": "stroop_frequent",
            "trial_index": 0,
            "trial_index_global": 258
        },
        {
            "rt": -1,
            "trial_type": "single-stim",
            "stimulus": "",
            "internal_chunk_id": "0-0.3-45",
            "time_elapsed": 225431,
            "key_press": -1,
            "trial_index": 0,
            "trial_index_global": 259
        },
        {
            "rt": -1,
            "trial_type": "single-stim",
            "stimulus": "<div class = centerbox><p class = 'stroop-stim'>+</p></div>",
            "internal_chunk_id": "0-0.3-46",
            "time_elapsed": 225637,
            "key_press": -1,
            "trial_index": 0,
            "trial_index_global": 260
        },
        {
            "rt": 737,
            "trial_type": "single-stim",
            "stimulus": "<div class = centerbox><p class = stroop-stim style = \"color:green\">RED</p></div>",
            "internal_chunk_id": "0-0.3-46",
            "time_elapsed": 226506,
            "key_press": 71,
            "type": "stroop_frequent",
            "trial_index": 0,
            "trial_index_global": 261
        },
        {
            "rt": -1,
            "trial_type": "single-stim",
            "stimulus": "",
            "internal_chunk_id": "0-0.3-46",
            "time_elapsed": 226758,
            "key_press": -1,
            "trial_index": 0,
            "trial_index_global": 262
        },
        {
            "rt": -1,
            "trial_type": "single-stim",
            "stimulus": "<div class = centerbox><p class = 'stroop-stim'>+</p></div>",
            "internal_chunk_id": "0-0.3-47",
            "time_elapsed": 226964,
            "key_press": -1,
            "trial_index": 0,
            "trial_index_global": 263
        },
        {
            "rt": 1952,
            "trial_type": "single-stim",
            "stimulus": "<div class = centerbox><p class = stroop-stim style = \"color:red\">GREEN</p></div>",
            "internal_chunk_id": "0-0.3-47",
            "time_elapsed": 229058,
            "key_press": 82,
            "type": "stroop_frequent",
            "trial_index": 0,
            "trial_index_global": 264
        },
        {
            "rt": -1,
            "trial_type": "single-stim",
            "stimulus": "",
            "internal_chunk_id": "0-0.3-47",
            "time_elapsed": 229317,
            "key_press": -1,
            "trial_index": 0,
            "trial_index_global": 265
        },
        {
            "rt": -1,
            "trial_type": "single-stim",
            "stimulus": "<div class = centerbox><p class = 'stroop-stim'>+</p></div>",
            "internal_chunk_id": "0-0.3-48",
            "time_elapsed": 229523,
            "key_press": -1,
            "trial_index": 0,
            "trial_index_global": 266
        },
        {
            "rt": 650,
            "trial_type": "single-stim",
            "stimulus": "<div class = centerbox><p class = stroop-stim style = \"color:blue\">RED</p></div>",
            "internal_chunk_id": "0-0.3-48",
            "time_elapsed": 230300,
            "key_press": 66,
            "type": "stroop_frequent",
            "trial_index": 0,
            "trial_index_global": 267
        },
        {
            "rt": -1,
            "trial_type": "single-stim",
            "stimulus": "",
            "internal_chunk_id": "0-0.3-48",
            "time_elapsed": 230552,
            "key_press": -1,
            "trial_index": 0,
            "trial_index_global": 268
        },
        {
            "rt": -1,
            "trial_type": "single-stim",
            "stimulus": "<div class = centerbox><p class = 'stroop-stim'>+</p></div>",
            "internal_chunk_id": "0-0.3-49",
            "time_elapsed": 230758,
            "key_press": -1,
            "trial_index": 0,
            "trial_index_global": 269
        },
        {
            "rt": 582,
            "trial_type": "single-stim",
            "stimulus": "<div class = centerbox><p class = stroop-stim style = \"color:red\">BLUE</p></div>",
            "internal_chunk_id": "0-0.3-49",
            "time_elapsed": 231522,
            "key_press": 82,
            "type": "stroop_frequent",
            "trial_index": 0,
            "trial_index_global": 270
        },
        {
            "rt": -1,
            "trial_type": "single-stim",
            "stimulus": "",
            "internal_chunk_id": "0-0.3-49",
            "time_elapsed": 231774,
            "key_press": -1,
            "trial_index": 0,
            "trial_index_global": 271
        },
        {
            "rt": -1,
            "trial_type": "single-stim",
            "stimulus": "<div class = centerbox><p class = 'stroop-stim'>+</p></div>",
            "internal_chunk_id": "0-0.3-50",
            "time_elapsed": 231980,
            "key_press": -1,
            "trial_index": 0,
            "trial_index_global": 272
        },
        {
            "rt": 601,
            "trial_type": "single-stim",
            "stimulus": "<div class = centerbox><p class = stroop-stim style = \"color:red\">BLUE</p></div>",
            "internal_chunk_id": "0-0.3-50",
            "time_elapsed": 232758,
            "key_press": 82,
            "type": "stroop_frequent",
            "trial_index": 0,
            "trial_index_global": 273
        },
        {
            "rt": -1,
            "trial_type": "single-stim",
            "stimulus": "",
            "internal_chunk_id": "0-0.3-50",
            "time_elapsed": 233010,
            "key_press": -1,
            "trial_index": 0,
            "trial_index_global": 274
        },
        {
            "rt": -1,
            "trial_type": "single-stim",
            "stimulus": "<div class = centerbox><p class = 'stroop-stim'>+</p></div>",
            "internal_chunk_id": "0-0.3-51",
            "time_elapsed": 233215,
            "key_press": -1,
            "trial_index": 0,
            "trial_index_global": 275
        },
        {
            "rt": 613,
            "trial_type": "single-stim",
            "stimulus": "<div class = centerbox><p class = stroop-stim style = \"color:green\">BLUE</p></div>",
            "internal_chunk_id": "0-0.3-51",
            "time_elapsed": 233985,
            "key_press": 71,
            "type": "stroop_frequent",
            "trial_index": 0,
            "trial_index_global": 276
        },
        {
            "rt": -1,
            "trial_type": "single-stim",
            "stimulus": "",
            "internal_chunk_id": "0-0.3-51",
            "time_elapsed": 234236,
            "key_press": -1,
            "trial_index": 0,
            "trial_index_global": 277
        },
        {
            "rt": -1,
            "trial_type": "single-stim",
            "stimulus": "<div class = centerbox><p class = 'stroop-stim'>+</p></div>",
            "internal_chunk_id": "0-0.3-52",
            "time_elapsed": 234441,
            "key_press": -1,
            "trial_index": 0,
            "trial_index_global": 278
        },
        {
            "rt": 557,
            "trial_type": "single-stim",
            "stimulus": "<div class = centerbox><p class = stroop-stim style = \"color:red\">GREEN</p></div>",
            "internal_chunk_id": "0-0.3-52",
            "time_elapsed": 235146,
            "key_press": 82,
            "type": "stroop_frequent",
            "trial_index": 0,
            "trial_index_global": 279
        },
        {
            "rt": -1,
            "trial_type": "single-stim",
            "stimulus": "",
            "internal_chunk_id": "0-0.3-52",
            "time_elapsed": 235397,
            "key_press": -1,
            "trial_index": 0,
            "trial_index_global": 280
        },
        {
            "rt": -1,
            "trial_type": "single-stim",
            "stimulus": "<div class = centerbox><p class = 'stroop-stim'>+</p></div>",
            "internal_chunk_id": "0-0.3-53",
            "time_elapsed": 235604,
            "key_press": -1,
            "trial_index": 0,
            "trial_index_global": 281
        },
        {
            "rt": 549,
            "trial_type": "single-stim",
            "stimulus": "<div class = centerbox><p class = stroop-stim style = \"color:red\">GREEN</p></div>",
            "internal_chunk_id": "0-0.3-53",
            "time_elapsed": 236307,
            "key_press": 82,
            "type": "stroop_frequent",
            "trial_index": 0,
            "trial_index_global": 282
        },
        {
            "rt": -1,
            "trial_type": "single-stim",
            "stimulus": "",
            "internal_chunk_id": "0-0.3-53",
            "time_elapsed": 236559,
            "key_press": -1,
            "trial_index": 0,
            "trial_index_global": 283
        },
        {
            "rt": -1,
            "trial_type": "single-stim",
            "stimulus": "<div class = centerbox><p class = 'stroop-stim'>+</p></div>",
            "internal_chunk_id": "0-0.3-54",
            "time_elapsed": 236766,
            "key_press": -1,
            "trial_index": 0,
            "trial_index_global": 284
        },
        {
            "rt": 575,
            "trial_type": "single-stim",
            "stimulus": "<div class = centerbox><p class = stroop-stim style = \"color:blue\">BLUE</p></div>",
            "internal_chunk_id": "0-0.3-54",
            "time_elapsed": 237513,
            "key_press": 66,
            "type": "stroop_frequent",
            "trial_index": 0,
            "trial_index_global": 285
        },
        {
            "rt": -1,
            "trial_type": "single-stim",
            "stimulus": "",
            "internal_chunk_id": "0-0.3-54",
            "time_elapsed": 237766,
            "key_press": -1,
            "trial_index": 0,
            "trial_index_global": 286
        },
        {
            "rt": -1,
            "trial_type": "single-stim",
            "stimulus": "<div class = centerbox><p class = 'stroop-stim'>+</p></div>",
            "internal_chunk_id": "0-0.3-55",
            "time_elapsed": 237972,
            "key_press": -1,
            "trial_index": 0,
            "trial_index_global": 287
        },
        {
            "rt": 629,
            "trial_type": "single-stim",
            "stimulus": "<div class = centerbox><p class = stroop-stim style = \"color:blue\">GREEN</p></div>",
            "internal_chunk_id": "0-0.3-55",
            "time_elapsed": 238765,
            "key_press": 66,
            "type": "stroop_frequent",
            "trial_index": 0,
            "trial_index_global": 288
        },
        {
            "rt": -1,
