{
    "ApprovalTime": "2015-02-24T07:27:34Z",
    "AutoApprovalTime": "2015-02-24T07:31:35Z",
    "AssignmentId": "3SNLUL3WO4MG6HY14D5CYORCCXUULB",
    "WorkerId": "A1HNHJV39S653U",
    "AcceptTime": "2015-02-24T06:45:31Z",
    "HITId": "3MA5N0ATTBAFSV7VOB3ACS4CUQLKWP",
    "Assignment": "",
    "answer": [
        {
            "rt": 74235,
            "trial_type": "text",
            "internal_chunk_id": "0-0",
            "time_elapsed": 74354,
            "key_press": 13,
            "trial_index": 0,
            "trial_index_global": 0
        },
        {
            "rt": -1,
            "trial_type": "single-stim",
            "stimulus": "",
            "internal_chunk_id": "0-0",
            "time_elapsed": 75368,
            "key_press": -1,
            "global_params": {
                "second_stage_stim": {
                    "stimulus": [
                        "<img class = 'decision-stim left' src='images/81.png'></img><img class = 'decision-stim right' src='images/85.png'></img>",
                        "<img class = 'decision-stim left' src='images/85.png'></img><img class = 'decision-stim right' src='images/81.png'></img>",
                        "<img class = 'decision-stim left' src='images/84.png'></img><img class = 'decision-stim right' src='images/80.png'></img>",
                        "<img class = 'decision-stim left' src='images/80.png'></img><img class = 'decision-stim right' src='images/84.png'></img>"
                    ],
                    "id": [
                        [
                            2,
                            3
                        ],
                        [
                            3,
                            2
                        ],
                        [
                            4,
                            5
                        ],
                        [
                            5,
                            4
                        ]
                    ]
                },
                "stims": [
                    "'images/83.png'",
                    "'images/82.png'",
                    "'images/81.png'",
                    "'images/85.png'",
                    "'images/84.png'",
                    "'images/80.png'"
                ],
                "fs_stim": [
                    {
                        "stimulus": "<img class = 'decision-stim left' src='images/83.png'></img><img class = 'decision-stim right' src='images/82.png'></img>",
                        "id": [
                            0,
                            1
                        ]
                    },
                    {
                        "stimulus": "<img class = 'decision-stim left' src='images/82.png'></img><img class = 'decision-stim right' src='images/83.png'></img>",
                        "id": [
                            1,
                            0
                        ]
                    }
                ],
                "condition": "practice",
                "actions": [
                    37,
                    39
                ]
            },
            "type": "decision_global",
            "trial_index": 0,
            "trial_index_global": 1
        },
        {
            "rt": 1286,
            "trial_type": "single-stim",
            "stimulus": "<img class = 'decision-stim left' src='images/83.png'></img><img class = 'decision-stim right' src='images/82.png'></img>",
            "trial_count": 0,
            "internal_chunk_id": "0-0.2-0.0-0",
            "time_elapsed": 76760,
            "key_press": 37,
            "type": "decision_first",
            "trial_index": 0,
            "trial_index_global": 2
        },
        {
            "rt": -1,
            "trial_type": "single-stim",
            "stimulus": "<img class = 'decision-stim left selected' src='images/83.png'><img class = 'decision-stim right' src='images/82.png'>",
            "internal_chunk_id": "0-0.2-0.0-0",
            "time_elapsed": 77267,
            "key_press": -1,
            "trial_index": 0,
            "trial_index_global": 3
        },
        {
            "rt": -1,
            "trial_type": "single-stim",
            "stimulus": "",
            "internal_chunk_id": "0-0.2-0.0-0",
            "time_elapsed": 78270,
            "key_press": -1,
            "trial_index": 0,
            "trial_index_global": 4
        },
        {
            "rt": -1,
            "trial_type": "single-stim",
            "stimulus": "<img class = 'decision-stim left' src='images/81.png'></img><img class = 'decision-stim right' src='images/85.png'></img>",
            "trial_count": 0,
            "internal_chunk_id": "0-0.2-0",
            "time_elapsed": 80273,
            "key_press": -1,
            "type": "decision_second",
            "trial_index": 0,
            "trial_index_global": 5
        },
        {
            "rt": -1,
            "trial_type": "single-stim",
            "internal_chunk_id": "0-0.2-0.2-0",
            "time_elapsed": 80776,
            "key_press": -1,
            "trial_index": 0,
            "trial_index_global": 6
        },
        {
            "rt": -1,
            "trial_type": "single-stim",
            "stimulus": "",
            "internal_chunk_id": "0-0.2-0.2-0",
            "time_elapsed": 81778,
            "key_press": -1,
            "trial_index": 0,
            "trial_index_global": 7
        },
        {
            "rt": -1,
            "trial_type": "single-stim",
            "stimulus": "<div style = text-align:center><p style = font-size:30px>Please respond faster </p></div>",
            "trial_count": 0,
            "internal_chunk_id": "0-0.2-0.2-0",
            "time_elapsed": 82281,
            "key_press": -1,
            "type": "decision_FB",
            "trial_index": 0,
            "trial_index_global": 8
        },
        {
            "rt": -1,
            "trial_type": "single-stim",
            "stimulus": "",
            "internal_chunk_id": "0-0.2-0.2-0",
            "time_elapsed": 83284,
            "key_press": -1,
            "trial_index": 0,
            "trial_index_global": 9
        },
        {
            "rt": 820,
            "trial_type": "single-stim",
            "stimulus": "<img class = 'decision-stim left' src='images/83.png'></img><img class = 'decision-stim right' src='images/82.png'></img>",
            "trial_count": 1,
            "internal_chunk_id": "0-0.2-1.0-1",
            "time_elapsed": 84221,
            "key_press": 37,
            "type": "decision_first",
            "trial_index": 0,
            "trial_index_global": 10
        },
        {
            "rt": -1,
            "trial_type": "single-stim",
            "stimulus": "<img class = 'decision-stim left selected' src='images/83.png'><img class = 'decision-stim right' src='images/82.png'>",
            "internal_chunk_id": "0-0.2-1.0-1",
            "time_elapsed": 84727,
            "key_press": -1,
            "trial_index": 0,
            "trial_index_global": 11
        },
        {
            "rt": -1,
            "trial_type": "single-stim",
            "stimulus": "",
            "internal_chunk_id": "0-0.2-1.0-1",
            "time_elapsed": 85730,
            "key_press": -1,
            "trial_index": 0,
            "trial_index_global": 12
        },
        {
            "rt": 423,
            "trial_type": "single-stim",
            "stimulus": "<img class = 'decision-stim left' src='images/81.png'></img><img class = 'decision-stim right' src='images/85.png'></img>",
            "trial_count": 1,
            "internal_chunk_id": "0-0.2-1",
            "time_elapsed": 86327,
            "key_press": 37,
            "type": "decision_second",
            "trial_index": 0,
            "trial_index_global": 13
        },
        {
            "rt": -1,
            "trial_type": "single-stim",
            "stimulus": "<img class = 'decision-stim left selected' src='images/81.png'><img class = 'decision-stim right' src='images/85.png'>",
            "internal_chunk_id": "0-0.2-1.2-1",
            "time_elapsed": 86832,
            "key_press": -1,
            "trial_index": 0,
            "trial_index_global": 14
        },
        {
            "rt": -1,
            "trial_type": "single-stim",
            "stimulus": "",
            "internal_chunk_id": "0-0.2-1.2-1",
            "time_elapsed": 87836,
            "key_press": -1,
            "trial_index": 0,
            "trial_index_global": 15
        },
        {
            "rt": -1,
            "trial_type": "single-stim",
            "stimulus": "<img class = 'decision-stim' src = 'images/gold_coin.png'></img>",
            "trial_count": 1,
            "internal_chunk_id": "0-0.2-1.2-1",
            "time_elapsed": 88343,
            "key_press": -1,
            "type": "decision_FB",
            "trial_index": 0,
            "trial_index_global": 16
        },
        {
            "rt": -1,
            "trial_type": "single-stim",
            "stimulus": "",
            "internal_chunk_id": "0-0.2-1.2-1",
            "time_elapsed": 89346,
            "key_press": -1,
            "trial_index": 0,
            "trial_index_global": 17
        },
        {
            "rt": 911,
            "trial_type": "single-stim",
            "stimulus": "<img class = 'decision-stim left' src='images/82.png'></img><img class = 'decision-stim right' src='images/83.png'></img>",
            "trial_count": 2,
            "internal_chunk_id": "0-0.2-2.0-2",
            "time_elapsed": 90377,
            "key_press": 37,
            "type": "decision_first",
            "trial_index": 0,
            "trial_index_global": 18
        },
        {
            "rt": -1,
            "trial_type": "single-stim",
            "stimulus": "<img class = 'decision-stim left selected' src='images/82.png'><img class = 'decision-stim right' src='images/83.png'>",
            "internal_chunk_id": "0-0.2-2.0-2",
            "time_elapsed": 90883,
            "key_press": -1,
            "trial_index": 0,
            "trial_index_global": 19
        },
        {
            "rt": -1,
            "trial_type": "single-stim",
            "stimulus": "",
            "internal_chunk_id": "0-0.2-2.0-2",
            "time_elapsed": 91886,
            "key_press": -1,
            "trial_index": 0,
            "trial_index_global": 20
        },
        {
            "rt": 447,
            "trial_type": "single-stim",
            "stimulus": "<img class = 'decision-stim left' src='images/81.png'></img><img class = 'decision-stim right' src='images/85.png'></img>",
            "trial_count": 2,
            "internal_chunk_id": "0-0.2-2",
            "time_elapsed": 92463,
            "key_press": 37,
            "type": "decision_second",
            "trial_index": 0,
            "trial_index_global": 21
        },
        {
            "rt": -1,
            "trial_type": "single-stim",
            "stimulus": "<img class = 'decision-stim left selected' src='images/81.png'><img class = 'decision-stim right' src='images/85.png'>",
            "internal_chunk_id": "0-0.2-2.2-2",
            "time_elapsed": 92969,
            "key_press": -1,
            "trial_index": 0,
            "trial_index_global": 22
        },
        {
            "rt": -1,
            "trial_type": "single-stim",
            "stimulus": "",
            "internal_chunk_id": "0-0.2-2.2-2",
            "time_elapsed": 93971,
            "key_press": -1,
            "trial_index": 0,
            "trial_index_global": 23
        },
        {
            "rt": -1,
            "trial_type": "single-stim",
            "stimulus": "<div style = text-align:center><p style = 'color:red;font-size:60px'>0</p></div>",
            "trial_count": 2,
            "internal_chunk_id": "0-0.2-2.2-2",
            "time_elapsed": 94475,
            "key_press": -1,
            "type": "decision_FB",
            "trial_index": 0,
            "trial_index_global": 24
        },
        {
            "rt": -1,
            "trial_type": "single-stim",
            "stimulus": "",
            "internal_chunk_id": "0-0.2-2.2-2",
            "time_elapsed": 95478,
            "key_press": -1,
            "trial_index": 0,
            "trial_index_global": 25
        },
        {
            "rt": 454,
            "trial_type": "single-stim",
            "stimulus": "<img class = 'decision-stim left' src='images/82.png'></img><img class = 'decision-stim right' src='images/83.png'></img>",
            "trial_count": 3,
            "internal_chunk_id": "0-0.2-3.0-3",
            "time_elapsed": 96101,
            "key_press": 39,
            "type": "decision_first",
            "trial_index": 0,
            "trial_index_global": 26
        },
        {
            "rt": -1,
            "trial_type": "single-stim",
            "stimulus": "<img class = 'decision-stim left' src='images/82.png'><img class = 'decision-stim right selected' src='images/83.png'>",
            "internal_chunk_id": "0-0.2-3.0-3",
            "time_elapsed": 96617,
            "key_press": -1,
            "trial_index": 0,
            "trial_index_global": 27
        },
        {
            "rt": -1,
            "trial_type": "single-stim",
            "stimulus": "",
            "internal_chunk_id": "0-0.2-3.0-3",
            "time_elapsed": 97619,
            "key_press": -1,
            "trial_index": 0,
            "trial_index_global": 28
        },
        {
            "rt": 273,
            "trial_type": "single-stim",
            "stimulus": "<img class = 'decision-stim left' src='images/85.png'></img><img class = 'decision-stim right' src='images/81.png'></img>",
            "trial_count": 3,
            "internal_chunk_id": "0-0.2-3",
            "time_elapsed": 98085,
            "key_press": 39,
            "type": "decision_second",
            "trial_index": 0,
            "trial_index_global": 29
        },
        {
            "rt": -1,
            "trial_type": "single-stim",
            "stimulus": "<img class = 'decision-stim left' src='images/85.png'><img class = 'decision-stim right selected' src='images/81.png'>",
            "internal_chunk_id": "0-0.2-3.2-3",
            "time_elapsed": 98589,
            "key_press": -1,
            "trial_index": 0,
            "trial_index_global": 30
        },
        {
            "rt": -1,
            "trial_type": "single-stim",
            "stimulus": "",
            "internal_chunk_id": "0-0.2-3.2-3",
            "time_elapsed": 99591,
            "key_press": -1,
            "trial_index": 0,
            "trial_index_global": 31
        },
        {
            "rt": -1,
            "trial_type": "single-stim",
            "stimulus": "<img class = 'decision-stim' src = 'images/gold_coin.png'></img>",
            "trial_count": 3,
            "internal_chunk_id": "0-0.2-3.2-3",
            "time_elapsed": 100098,
            "key_press": -1,
            "type": "decision_FB",
            "trial_index": 0,
            "trial_index_global": 32
        },
        {
            "rt": -1,
            "trial_type": "single-stim",
            "stimulus": "",
            "internal_chunk_id": "0-0.2-3.2-3",
            "time_elapsed": 101101,
            "key_press": -1,
            "trial_index": 0,
            "trial_index_global": 33
        },
        {
            "rt": 914,
            "trial_type": "single-stim",
            "stimulus": "<img class = 'decision-stim left' src='images/82.png'></img><img class = 'decision-stim right' src='images/83.png'></img>",
            "trial_count": 4,
            "internal_chunk_id": "0-0.2-4.0-4",
            "time_elapsed": 102158,
            "key_press": 39,
            "type": "decision_first",
            "trial_index": 0,
            "trial_index_global": 34
        },
        {
            "rt": -1,
            "trial_type": "single-stim",
            "stimulus": "<img class = 'decision-stim left' src='images/82.png'><img class = 'decision-stim right selected' src='images/83.png'>",
            "internal_chunk_id": "0-0.2-4.0-4",
            "time_elapsed": 102664,
            "key_press": -1,
            "trial_index": 0,
            "trial_index_global": 35
        },
        {
            "rt": -1,
            "trial_type": "single-stim",
            "stimulus": "",
            "internal_chunk_id": "0-0.2-4.0-4",
            "time_elapsed": 103666,
            "key_press": -1,
            "trial_index": 0,
            "trial_index_global": 36
        },
        {
            "rt": 280,
            "trial_type": "single-stim",
            "stimulus": "<img class = 'decision-stim left' src='images/81.png'></img><img class = 'decision-stim right' src='images/85.png'></img>",
            "trial_count": 4,
            "internal_chunk_id": "0-0.2-4",
            "time_elapsed": 104118,
            "key_press": 37,
            "type": "decision_second",
            "trial_index": 0,
            "trial_index_global": 37
        },
        {
            "rt": -1,
            "trial_type": "single-stim",
            "stimulus": "<img class = 'decision-stim left selected' src='images/81.png'><img class = 'decision-stim right' src='images/85.png'>",
            "internal_chunk_id": "0-0.2-4.2-4",
            "time_elapsed": 104623,
            "key_press": -1,
            "trial_index": 0,
            "trial_index_global": 38
        },
        {
            "rt": -1,
            "trial_type": "single-stim",
            "stimulus": "",
            "internal_chunk_id": "0-0.2-4.2-4",
            "time_elapsed": 105626,
            "key_press": -1,
            "trial_index": 0,
            "trial_index_global": 39
        },
        {
            "rt": -1,
            "trial_type": "single-stim",
            "stimulus": "<div style = text-align:center><p style = 'color:red;font-size:60px'>0</p></div>",
            "trial_count": 4,
            "internal_chunk_id": "0-0.2-4.2-4",
            "time_elapsed": 106129,
            "key_press": -1,
            "type": "decision_FB",
            "trial_index": 0,
            "trial_index_global": 40
        },
        {
            "rt": -1,
            "trial_type": "single-stim",
            "stimulus": "",
            "internal_chunk_id": "0-0.2-4.2-4",
            "time_elapsed": 107132,
            "key_press": -1,
            "trial_index": 0,
            "trial_index_global": 41
        },
        {
            "rt": 325,
            "trial_type": "single-stim",
            "stimulus": "<img class = 'decision-stim left' src='images/83.png'></img><img class = 'decision-stim right' src='images/82.png'></img>",
            "trial_count": 5,
            "internal_chunk_id": "0-0.2-5.0-5",
            "time_elapsed": 107570,
            "key_press": 37,
            "type": "decision_first",
            "trial_index": 0,
            "trial_index_global": 42
        },
        {
            "rt": -1,
            "trial_type": "single-stim",
            "stimulus": "<img class = 'decision-stim left selected' src='images/83.png'><img class = 'decision-stim right' src='images/82.png'>",
            "internal_chunk_id": "0-0.2-5.0-5",
            "time_elapsed": 108077,
            "key_press": -1,
            "trial_index": 0,
            "trial_index_global": 43
        },
        {
            "rt": -1,
            "trial_type": "single-stim",
            "stimulus": "",
            "internal_chunk_id": "0-0.2-5.0-5",
            "time_elapsed": 109080,
            "key_press": -1,
            "trial_index": 0,
            "trial_index_global": 44
        },
        {
            "rt": 381,
            "trial_type": "single-stim",
            "stimulus": "<img class = 'decision-stim left' src='images/81.png'></img><img class = 'decision-stim right' src='images/85.png'></img>",
            "trial_count": 5,
            "internal_chunk_id": "0-0.2-5",
            "time_elapsed": 109641,
            "key_press": 39,
            "type": "decision_second",
            "trial_index": 0,
            "trial_index_global": 45
        },
        {
            "rt": -1,
            "trial_type": "single-stim",
            "stimulus": "<img class = 'decision-stim left' src='images/81.png'><img class = 'decision-stim right selected' src='images/85.png'>",
            "internal_chunk_id": "0-0.2-5.2-5",
            "time_elapsed": 110147,
            "key_press": -1,
            "trial_index": 0,
            "trial_index_global": 46
        },
        {
            "rt": -1,
            "trial_type": "single-stim",
            "stimulus": "",
            "internal_chunk_id": "0-0.2-5.2-5",
            "time_elapsed": 111150,
            "key_press": -1,
            "trial_index": 0,
            "trial_index_global": 47
        },
        {
            "rt": -1,
            "trial_type": "single-stim",
            "stimulus": "<img class = 'decision-stim' src = 'images/gold_coin.png'></img>",
            "trial_count": 5,
            "internal_chunk_id": "0-0.2-5.2-5",
            "time_elapsed": 111656,
            "key_press": -1,
            "type": "decision_FB",
            "trial_index": 0,
            "trial_index_global": 48
        },
        {
            "rt": -1,
            "trial_type": "single-stim",
            "stimulus": "",
            "internal_chunk_id": "0-0.2-5.2-5",
            "time_elapsed": 112658,
            "key_press": -1,
            "trial_index": 0,
            "trial_index_global": 49
        },
        {
            "rt": 504,
            "trial_type": "single-stim",
            "stimulus": "<img class = 'decision-stim left' src='images/82.png'></img><img class = 'decision-stim right' src='images/83.png'></img>",
            "trial_count": 6,
            "internal_chunk_id": "0-0.2-6.0-6",
            "time_elapsed": 113272,
            "key_press": 37,
            "type": "decision_first",
            "trial_index": 0,
            "trial_index_global": 50
        },
        {
            "rt": -1,
            "trial_type": "single-stim",
            "stimulus": "<img class = 'decision-stim left selected' src='images/82.png'><img class = 'decision-stim right' src='images/83.png'>",
            "internal_chunk_id": "0-0.2-6.0-6",
            "time_elapsed": 113817,
            "key_press": -1,
            "trial_index": 0,
            "trial_index_global": 51
        },
        {
            "rt": -1,
            "trial_type": "single-stim",
            "stimulus": "",
            "internal_chunk_id": "0-0.2-6.0-6",
            "time_elapsed": 114820,
            "key_press": -1,
            "trial_index": 0,
            "trial_index_global": 52
        },
        {
            "rt": 492,
            "trial_type": "single-stim",
            "stimulus": "<img class = 'decision-stim left' src='images/84.png'></img><img class = 'decision-stim right' src='images/80.png'></img>",
            "trial_count": 6,
            "internal_chunk_id": "0-0.2-6",
            "time_elapsed": 115489,
            "key_press": 39,
            "type": "decision_second",
            "trial_index": 0,
            "trial_index_global": 53
        },
        {
            "rt": -1,
            "trial_type": "single-stim",
            "stimulus": "<img class = 'decision-stim left' src='images/84.png'><img class = 'decision-stim right selected' src='images/80.png'>",
            "internal_chunk_id": "0-0.2-6.2-6",
            "time_elapsed": 115995,
            "key_press": -1,
            "trial_index": 0,
            "trial_index_global": 54
        },
        {
            "rt": -1,
            "trial_type": "single-stim",
            "stimulus": "",
            "internal_chunk_id": "0-0.2-6.2-6",
            "time_elapsed": 116998,
            "key_press": -1,
            "trial_index": 0,
            "trial_index_global": 55
        },
        {
            "rt": -1,
            "trial_type": "single-stim",
            "stimulus": "<img class = 'decision-stim' src = 'images/gold_coin.png'></img>",
            "trial_count": 6,
            "internal_chunk_id": "0-0.2-6.2-6",
            "time_elapsed": 117504,
            "key_press": -1,
            "type": "decision_FB",
            "trial_index": 0,
            "trial_index_global": 56
        },
        {
            "rt": -1,
            "trial_type": "single-stim",
            "stimulus": "",
            "internal_chunk_id": "0-0.2-6.2-6",
            "time_elapsed": 118507,
            "key_press": -1,
            "trial_index": 0,
            "trial_index_global": 57
        },
        {
            "rt": 537,
            "trial_type": "single-stim",
            "stimulus": "<img class = 'decision-stim left' src='images/82.png'></img><img class = 'decision-stim right' src='images/83.png'></img>",
            "trial_count": 7,
            "internal_chunk_id": "0-0.2-7.0-7",
            "time_elapsed": 119157,
            "key_press": 37,
            "type": "decision_first",
            "trial_index": 0,
            "trial_index_global": 58
        },
        {
            "rt": -1,
            "trial_type": "single-stim",
            "stimulus": "<img class = 'decision-stim left selected' src='images/82.png'><img class = 'decision-stim right' src='images/83.png'>",
            "internal_chunk_id": "0-0.2-7.0-7",
            "time_elapsed": 119662,
            "key_press": -1,
            "trial_index": 0,
            "trial_index_global": 59
        },
        {
            "rt": -1,
            "trial_type": "single-stim",
            "stimulus": "",
            "internal_chunk_id": "0-0.2-7.0-7",
            "time_elapsed": 120665,
            "key_press": -1,
            "trial_index": 0,
            "trial_index_global": 60
        },
        {
            "rt": 618,
            "trial_type": "single-stim",
            "stimulus": "<img class = 'decision-stim left' src='images/84.png'></img><img class = 'decision-stim right' src='images/80.png'></img>",
            "trial_count": 7,
            "internal_chunk_id": "0-0.2-7",
            "time_elapsed": 121452,
            "key_press": 39,
            "type": "decision_second",
            "trial_index": 0,
            "trial_index_global": 61
        },
        {
            "rt": -1,
            "trial_type": "single-stim",
            "stimulus": "<img class = 'decision-stim left' src='images/84.png'><img class = 'decision-stim right selected' src='images/80.png'>",
            "internal_chunk_id": "0-0.2-7.2-7",
            "time_elapsed": 121957,
            "key_press": -1,
            "trial_index": 0,
            "trial_index_global": 62
        },
        {
            "rt": -1,
            "trial_type": "single-stim",
            "stimulus": "",
            "internal_chunk_id": "0-0.2-7.2-7",
            "time_elapsed": 122959,
            "key_press": -1,
            "trial_index": 0,
            "trial_index_global": 63
        },
        {
            "rt": -1,
            "trial_type": "single-stim",
            "stimulus": "<div style = text-align:center><p style = 'color:red;font-size:60px'>0</p></div>",
            "trial_count": 7,
            "internal_chunk_id": "0-0.2-7.2-7",
            "time_elapsed": 123463,
            "key_press": -1,
            "type": "decision_FB",
            "trial_index": 0,
            "trial_index_global": 64
        },
        {
            "rt": -1,
            "trial_type": "single-stim",
            "stimulus": "",
            "internal_chunk_id": "0-0.2-7.2-7",
            "time_elapsed": 124466,
            "key_press": -1,
            "trial_index": 0,
            "trial_index_global": 65
        },
        {
            "rt": 297,
            "trial_type": "single-stim",
            "stimulus": "<img class = 'decision-stim left' src='images/83.png'></img><img class = 'decision-stim right' src='images/82.png'></img>",
            "trial_count": 8,
            "internal_chunk_id": "0-0.2-8.0-8",
            "time_elapsed": 124870,
            "key_press": 37,
            "type": "decision_first",
            "trial_index": 0,
            "trial_index_global": 66
        },
        {
            "rt": -1,
            "trial_type": "single-stim",
            "stimulus": "<img class = 'decision-stim left selected' src='images/83.png'><img class = 'decision-stim right' src='images/82.png'>",
            "internal_chunk_id": "0-0.2-8.0-8",
            "time_elapsed": 125375,
            "key_press": -1,
            "trial_index": 0,
            "trial_index_global": 67
        },
        {
            "rt": -1,
            "trial_type": "single-stim",
            "stimulus": "",
            "internal_chunk_id": "0-0.2-8.0-8",
            "time_elapsed": 126378,
            "key_press": -1,
            "trial_index": 0,
            "trial_index_global": 68
        },
        {
            "rt": 261,
            "trial_type": "single-stim",
            "stimulus": "<img class = 'decision-stim left' src='images/80.png'></img><img class = 'decision-stim right' src='images/84.png'></img>",
            "trial_count": 8,
            "internal_chunk_id": "0-0.2-8",
            "time_elapsed": 126801,
            "key_press": 37,
            "type": "decision_second",
            "trial_index": 0,
            "trial_index_global": 69
        },
        {
            "rt": -1,
            "trial_type": "single-stim",
            "stimulus": "<img class = 'decision-stim left selected' src='images/80.png'><img class = 'decision-stim right' src='images/84.png'>",
            "internal_chunk_id": "0-0.2-8.2-8",
            "time_elapsed": 127307,
            "key_press": -1,
            "trial_index": 0,
            "trial_index_global": 70
        },
        {
            "rt": -1,
            "trial_type": "single-stim",
            "stimulus": "",
            "internal_chunk_id": "0-0.2-8.2-8",
            "time_elapsed": 128308,
            "key_press": -1,
            "trial_index": 0,
            "trial_index_global": 71
        },
        {
            "rt": -1,
            "trial_type": "single-stim",
            "stimulus": "<div style = text-align:center><p style = 'color:red;font-size:60px'>0</p></div>",
            "trial_count": 8,
            "internal_chunk_id": "0-0.2-8.2-8",
            "time_elapsed": 128813,
            "key_press": -1,
            "type": "decision_FB",
            "trial_index": 0,
            "trial_index_global": 72
        },
        {
            "rt": -1,
            "trial_type": "single-stim",
            "stimulus": "",
            "internal_chunk_id": "0-0.2-8.2-8",
            "time_elapsed": 129816,
            "key_press": -1,
            "trial_index": 0,
            "trial_index_global": 73
        },
        {
            "rt": 287,
            "trial_type": "single-stim",
            "stimulus": "<img class = 'decision-stim left' src='images/83.png'></img><img class = 'decision-stim right' src='images/82.png'></img>",
            "trial_count": 9,
            "internal_chunk_id": "0-0.2-9.0-9",
            "time_elapsed": 130245,
            "key_press": 39,
            "type": "decision_first",
            "trial_index": 0,
            "trial_index_global": 74
        },
        {
            "rt": -1,
            "trial_type": "single-stim",
            "stimulus": "<img class = 'decision-stim left' src='images/83.png'><img class = 'decision-stim right selected' src='images/82.png'>",
            "internal_chunk_id": "0-0.2-9.0-9",
            "time_elapsed": 130751,
            "key_press": -1,
            "trial_index": 0,
            "trial_index_global": 75
        },
        {
            "rt": -1,
            "trial_type": "single-stim",
            "stimulus": "",
            "internal_chunk_id": "0-0.2-9.0-9",
            "time_elapsed": 131753,
            "key_press": -1,
            "trial_index": 0,
            "trial_index_global": 76
        },
        {
            "rt": 271,
            "trial_type": "single-stim",
            "stimulus": "<img class = 'decision-stim left' src='images/80.png'></img><img class = 'decision-stim right' src='images/84.png'></img>",
            "trial_count": 9,
            "internal_chunk_id": "0-0.2-9",
            "time_elapsed": 132186,
            "key_press": 37,
            "type": "decision_second",
            "trial_index": 0,
            "trial_index_global": 77
        },
        {
            "rt": -1,
            "trial_type": "single-stim",
            "stimulus": "<img class = 'decision-stim left selected' src='images/80.png'><img class = 'decision-stim right' src='images/84.png'>",
            "internal_chunk_id": "0-0.2-9.2-9",
            "time_elapsed": 132691,
            "key_press": -1,
            "trial_index": 0,
            "trial_index_global": 78
        },
        {
            "rt": -1,
            "trial_type": "single-stim",
            "stimulus": "",
            "internal_chunk_id": "0-0.2-9.2-9",
            "time_elapsed": 133695,
            "key_press": -1,
            "trial_index": 0,
            "trial_index_global": 79
        },
        {
            "rt": -1,
            "trial_type": "single-stim",
            "stimulus": "<img class = 'decision-stim' src = 'images/gold_coin.png'></img>",
            "trial_count": 9,
            "internal_chunk_id": "0-0.2-9.2-9",
            "time_elapsed": 134201,
            "key_press": -1,
            "type": "decision_FB",
            "trial_index": 0,
            "trial_index_global": 80
        },
        {
            "rt": -1,
            "trial_type": "single-stim",
            "stimulus": "",
            "internal_chunk_id": "0-0.2-9.2-9",
            "time_elapsed": 135204,
            "key_press": -1,
            "trial_index": 0,
            "trial_index_global": 81
        },
        {
            "rt": 464,
            "trial_type": "single-stim",
            "stimulus": "<img class = 'decision-stim left' src='images/82.png'></img><img class = 'decision-stim right' src='images/83.png'></img>",
            "trial_count": 10,
            "internal_chunk_id": "0-0.2-10.0-10",
            "time_elapsed": 135823,
            "key_press": 39,
            "type": "decision_first",
            "trial_index": 0,
            "trial_index_global": 82
        },
        {
            "rt": -1,
            "trial_type": "single-stim",
            "stimulus": "<img class = 'decision-stim left' src='images/82.png'><img class = 'decision-stim right selected' src='images/83.png'>",
            "internal_chunk_id": "0-0.2-10.0-10",
            "time_elapsed": 136328,
            "key_press": -1,
            "trial_index": 0,
            "trial_index_global": 83
        },
        {
            "rt": -1,
            "trial_type": "single-stim",
            "stimulus": "",
            "internal_chunk_id": "0-0.2-10.0-10",
            "time_elapsed": 137331,
            "key_press": -1,
            "trial_index": 0,
            "trial_index_global": 84
        },
        {
            "rt": 271,
            "trial_type": "single-stim",
            "stimulus": "<img class = 'decision-stim left' src='images/81.png'></img><img class = 'decision-stim right' src='images/85.png'></img>",
            "trial_count": 10,
            "internal_chunk_id": "0-0.2-10",
            "time_elapsed": 137743,
            "key_press": 37,
            "type": "decision_second",
            "trial_index": 0,
            "trial_index_global": 85
        },
        {
            "rt": -1,
            "trial_type": "single-stim",
            "stimulus": "<img class = 'decision-stim left selected' src='images/81.png'><img class = 'decision-stim right' src='images/85.png'>",
            "internal_chunk_id": "0-0.2-10.2-10",
            "time_elapsed": 138250,
            "key_press": -1,
            "trial_index": 0,
            "trial_index_global": 86
        },
        {
            "rt": -1,
            "trial_type": "single-stim",
            "stimulus": "",
            "internal_chunk_id": "0-0.2-10.2-10",
            "time_elapsed": 139252,
            "key_press": -1,
            "trial_index": 0,
            "trial_index_global": 87
        },
        {
            "rt": -1,
            "trial_type": "single-stim",
            "stimulus": "<div style = text-align:center><p style = 'color:red;font-size:60px'>0</p></div>",
            "trial_count": 10,
            "internal_chunk_id": "0-0.2-10.2-10",
            "time_elapsed": 139758,
            "key_press": -1,
            "type": "decision_FB",
            "trial_index": 0,
            "trial_index_global": 88
        },
        {
            "rt": -1,
            "trial_type": "single-stim",
            "stimulus": "",
            "internal_chunk_id": "0-0.2-10.2-10",
            "time_elapsed": 140761,
            "key_press": -1,
            "trial_index": 0,
            "trial_index_global": 89
        },
        {
            "rt": 406,
            "trial_type": "single-stim",
            "stimulus": "<img class = 'decision-stim left' src='images/82.png'></img><img class = 'decision-stim right' src='images/83.png'></img>",
            "trial_count": 11,
            "internal_chunk_id": "0-0.2-11.0-11",
            "time_elapsed": 141279,
            "key_press": 37,
            "type": "decision_first",
            "trial_index": 0,
            "trial_index_global": 90
        },
        {
            "rt": -1,
            "trial_type": "single-stim",
            "stimulus": "<img class = 'decision-stim left selected' src='images/82.png'><img class = 'decision-stim right' src='images/83.png'>",
            "internal_chunk_id": "0-0.2-11.0-11",
            "time_elapsed": 141785,
            "key_press": -1,
            "trial_index": 0,
            "trial_index_global": 91
        },
        {
            "rt": -1,
            "trial_type": "single-stim",
            "stimulus": "",
            "internal_chunk_id": "0-0.2-11.0-11",
            "time_elapsed": 142789,
            "key_press": -1,
            "trial_index": 0,
            "trial_index_global": 92
        },
        {
            "rt": 334,
            "trial_type": "single-stim",
            "stimulus": "<img class = 'decision-stim left' src='images/84.png'></img><img class = 'decision-stim right' src='images/80.png'></img>",
            "trial_count": 11,
            "internal_chunk_id": "0-0.2-11",
            "time_elapsed": 143285,
            "key_press": 39,
            "type": "decision_second",
            "trial_index": 0,
            "trial_index_global": 93
        },
        {
            "rt": -1,
            "trial_type": "single-stim",
            "stimulus": "<img class = 'decision-stim left' src='images/84.png'><img class = 'decision-stim right selected' src='images/80.png'>",
            "internal_chunk_id": "0-0.2-11.2-11",
            "time_elapsed": 143792,
            "key_press": -1,
            "trial_index": 0,
            "trial_index_global": 94
        },
        {
            "rt": -1,
            "trial_type": "single-stim",
            "stimulus": "",
            "internal_chunk_id": "0-0.2-11.2-11",
            "time_elapsed": 144794,
            "key_press": -1,
            "trial_index": 0,
            "trial_index_global": 95
        },
        {
            "rt": -1,
            "trial_type": "single-stim",
            "stimulus": "<img class = 'decision-stim' src = 'images/gold_coin.png'></img>",
            "trial_count": 11,
            "internal_chunk_id": "0-0.2-11.2-11",
            "time_elapsed": 145300,
            "key_press": -1,
            "type": "decision_FB",
            "trial_index": 0,
            "trial_index_global": 96
        },
        {
            "rt": -1,
            "trial_type": "single-stim",
            "stimulus": "",
            "internal_chunk_id": "0-0.2-11.2-11",
            "time_elapsed": 146304,
            "key_press": -1,
            "trial_index": 0,
            "trial_index_global": 97
        },
        {
            "rt": 384,
            "trial_type": "single-stim",
            "stimulus": "<img class = 'decision-stim left' src='images/82.png'></img><img class = 'decision-stim right' src='images/83.png'></img>",
            "trial_count": 12,
            "internal_chunk_id": "0-0.2-12.0-12",
            "time_elapsed": 146822,
            "key_press": 37,
            "type": "decision_first",
            "trial_index": 0,
            "trial_index_global": 98
        },
        {
            "rt": -1,
            "trial_type": "single-stim",
            "stimulus": "<img class = 'decision-stim left selected' src='images/82.png'><img class = 'decision-stim right' src='images/83.png'>",
            "internal_chunk_id": "0-0.2-12.0-12",
            "time_elapsed": 147327,
            "key_press": -1,
            "trial_index": 0,
            "trial_index_global": 99
        },
        {
            "rt": -1,
            "trial_type": "single-stim",
            "stimulus": "",
            "internal_chunk_id": "0-0.2-12.0-12",
            "time_elapsed": 148329,
            "key_press": -1,
            "trial_index": 0,
            "trial_index_global": 100
        },
        {
            "rt": 723,
            "trial_type": "single-stim",
            "stimulus": "<img class = 'decision-stim left' src='images/80.png'></img><img class = 'decision-stim right' src='images/84.png'></img>",
            "trial_count": 12,
            "internal_chunk_id": "0-0.2-12",
            "time_elapsed": 149211,
            "key_press": 39,
            "type": "decision_second",
            "trial_index": 0,
            "trial_index_global": 101
        },
        {
            "rt": -1,
            "trial_type": "single-stim",
            "stimulus": "<img class = 'decision-stim left' src='images/80.png'><img class = 'decision-stim right selected' src='images/84.png'>",
            "internal_chunk_id": "0-0.2-12.2-12",
            "time_elapsed": 149717,
            "key_press": -1,
            "trial_index": 0,
            "trial_index_global": 102
        },
        {
            "rt": -1,
            "trial_type": "single-stim",
            "stimulus": "",
            "internal_chunk_id": "0-0.2-12.2-12",
            "time_elapsed": 150722,
            "key_press": -1,
            "trial_index": 0,
            "trial_index_global": 103
        },
        {
            "rt": -1,
            "trial_type": "single-stim",
            "stimulus": "<div style = text-align:center><p style = 'color:red;font-size:60px'>0</p></div>",
            "trial_count": 12,
            "internal_chunk_id": "0-0.2-12.2-12",
            "time_elapsed": 151227,
            "key_press": -1,
            "type": "decision_FB",
            "trial_index": 0,
            "trial_index_global": 104
        },
        {
            "rt": -1,
            "trial_type": "single-stim",
            "stimulus": "",
            "internal_chunk_id": "0-0.2-12.2-12",
            "time_elapsed": 152229,
            "key_press": -1,
            "trial_index": 0,
            "trial_index_global": 105
        },
        {
            "rt": 493,
            "trial_type": "single-stim",
            "stimulus": "<img class = 'decision-stim left' src='images/83.png'></img><img class = 'decision-stim right' src='images/82.png'></img>",
            "trial_count": 13,
            "internal_chunk_id": "0-0.2-13.0-13",
            "time_elapsed": 152844,
            "key_press": 37,
            "type": "decision_first",
            "trial_index": 0,
            "trial_index_global": 106
        },
        {
            "rt": -1,
            "trial_type": "single-stim",
            "stimulus": "<img class = 'decision-stim left selected' src='images/83.png'><img class = 'decision-stim right' src='images/82.png'>",
            "internal_chunk_id": "0-0.2-13.0-13",
            "time_elapsed": 153350,
            "key_press": -1,
            "trial_index": 0,
            "trial_index_global": 107
        },
        {
            "rt": -1,
            "trial_type": "single-stim",
            "stimulus": "",
            "internal_chunk_id": "0-0.2-13.0-13",
            "time_elapsed": 154354,
            "key_press": -1,
            "trial_index": 0,
            "trial_index_global": 108
        },
        {
            "rt": 508,
            "trial_type": "single-stim",
            "stimulus": "<img class = 'decision-stim left' src='images/85.png'></img><img class = 'decision-stim right' src='images/81.png'></img>",
            "trial_count": 13,
            "internal_chunk_id": "0-0.2-13",
            "time_elapsed": 154992,
            "key_press": 37,
            "type": "decision_second",
            "trial_index": 0,
            "trial_index_global": 109
        },
        {
            "rt": -1,
            "trial_type": "single-stim",
            "stimulus": "<img class = 'decision-stim left selected' src='images/85.png'><img class = 'decision-stim right' src='images/81.png'>",
            "internal_chunk_id": "0-0.2-13.2-13",
            "time_elapsed": 155498,
            "key_press": -1,
            "trial_index": 0,
            "trial_index_global": 110
        },
        {
            "rt": -1,
            "trial_type": "single-stim",
            "stimulus": "",
            "internal_chunk_id": "0-0.2-13.2-13",
            "time_elapsed": 156501,
            "key_press": -1,
            "trial_index": 0,
            "trial_index_global": 111
        },
        {
            "rt": -1,
            "trial_type": "single-stim",
            "stimulus": "<div style = text-align:center><p style = 'color:red;font-size:60px'>0</p></div>",
            "trial_count": 13,
            "internal_chunk_id": "0-0.2-13.2-13",
            "time_elapsed": 157005,
            "key_press": -1,
            "type": "decision_FB",
            "trial_index": 0,
            "trial_index_global": 112
        },
        {
            "rt": -1,
            "trial_type": "single-stim",
            "stimulus": "",
            "internal_chunk_id": "0-0.2-13.2-13",
            "time_elapsed": 158008,
            "key_press": -1,
            "trial_index": 0,
            "trial_index_global": 113
        },
        {
            "rt": 518,
            "trial_type": "single-stim",
            "stimulus": "<img class = 'decision-stim left' src='images/82.png'></img><img class = 'decision-stim right' src='images/83.png'></img>",
            "trial_count": 14,
            "internal_chunk_id": "0-0.2-14.0-14",
            "time_elapsed": 158662,
            "key_press": 39,
            "type": "decision_first",
            "trial_index": 0,
            "trial_index_global": 114
        },
        {
            "rt": -1,
            "trial_type": "single-stim",
            "stimulus": "<img class = 'decision-stim left' src='images/82.png'><img class = 'decision-stim right selected' src='images/83.png'>",
            "internal_chunk_id": "0-0.2-14.0-14",
            "time_elapsed": 159168,
            "key_press": -1,
            "trial_index": 0,
            "trial_index_global": 115
        },
        {
            "rt": -1,
            "trial_type": "single-stim",
            "stimulus": "",
            "internal_chunk_id": "0-0.2-14.0-14",
            "time_elapsed": 160171,
            "key_press": -1,
            "trial_index": 0,
            "trial_index_global": 116
        },
        {
            "rt": 264,
            "trial_type": "single-stim",
            "stimulus": "<img class = 'decision-stim left' src='images/80.png'></img><img class = 'decision-stim right' src='images/84.png'></img>",
            "trial_count": 14,
            "internal_chunk_id": "0-0.2-14",
            "time_elapsed": 160569,
            "key_press": 37,
            "type": "decision_second",
            "trial_index": 0,
            "trial_index_global": 117
        },
        {
            "rt": -1,
            "trial_type": "single-stim",
            "stimulus": "<img class = 'decision-stim left selected' src='images/80.png'><img class = 'decision-stim right' src='images/84.png'>",
            "internal_chunk_id": "0-0.2-14.2-14",
            "time_elapsed": 161076,
            "key_press": -1,
            "trial_index": 0,
            "trial_index_global": 118
        },
        {
            "rt": -1,
            "trial_type": "single-stim",
            "stimulus": "",
            "internal_chunk_id": "0-0.2-14.2-14",
            "time_elapsed": 162078,
            "key_press": -1,
            "trial_index": 0,
            "trial_index_global": 119
        },
        {
            "rt": -1,
            "trial_type": "single-stim",
            "stimulus": "<div style = text-align:center><p style = 'color:red;font-size:60px'>0</p></div>",
            "trial_count": 14,
            "internal_chunk_id": "0-0.2-14.2-14",
            "time_elapsed": 162582,
            "key_press": -1,
            "type": "decision_FB",
            "trial_index": 0,
            "trial_index_global": 120
        },
        {
            "rt": -1,
            "trial_type": "single-stim",
            "stimulus": "",
            "internal_chunk_id": "0-0.2-14.2-14",
            "time_elapsed": 163586,
            "key_press": -1,
            "trial_index": 0,
            "trial_index_global": 121
        },
        {
            "rt": 462,
            "trial_type": "single-stim",
            "stimulus": "<img class = 'decision-stim left' src='images/83.png'></img><img class = 'decision-stim right' src='images/82.png'></img>",
            "trial_count": 15,
            "internal_chunk_id": "0-0.2-15.0-15",
            "time_elapsed": 164206,
            "key_press": 39,
            "type": "decision_first",
            "trial_index": 0,
            "trial_index_global": 122
        },
        {
            "rt": -1,
            "trial_type": "single-stim",
            "stimulus": "<img class = 'decision-stim left' src='images/83.png'><img class = 'decision-stim right selected' src='images/82.png'>",
            "internal_chunk_id": "0-0.2-15.0-15",
            "time_elapsed": 164713,
            "key_press": -1,
            "trial_index": 0,
            "trial_index_global": 123
        },
        {
            "rt": -1,
            "trial_type": "single-stim",
            "stimulus": "",
            "internal_chunk_id": "0-0.2-15.0-15",
            "time_elapsed": 165717,
            "key_press": -1,
            "trial_index": 0,
            "trial_index_global": 124
        },
        {
            "rt": 259,
            "trial_type": "single-stim",
            "stimulus": "<img class = 'decision-stim left' src='images/84.png'></img><img class = 'decision-stim right' src='images/80.png'></img>",
            "trial_count": 15,
            "internal_chunk_id": "0-0.2-15",
            "time_elapsed": 166122,
            "key_press": 39,
            "type": "decision_second",
            "trial_index": 0,
            "trial_index_global": 125
        },
        {
            "rt": -1,
            "trial_type": "single-stim",
            "stimulus": "<img class = 'decision-stim left' src='images/84.png'><img class = 'decision-stim right selected' src='images/80.png'>",
            "internal_chunk_id": "0-0.2-15.2-15",
            "time_elapsed": 166630,
            "key_press": -1,
            "trial_index": 0,
            "trial_index_global": 126
        },
        {
            "rt": -1,
            "trial_type": "single-stim",
            "stimulus": "",
            "internal_chunk_id": "0-0.2-15.2-15",
            "time_elapsed": 167633,
            "key_press": -1,
            "trial_index": 0,
            "trial_index_global": 127
        },
        {
            "rt": -1,
            "trial_type": "single-stim",
            "stimulus": "<img class = 'decision-stim' src = 'images/gold_coin.png'></img>",
            "trial_count": 15,
            "internal_chunk_id": "0-0.2-15.2-15",
            "time_elapsed": 168140,
            "key_press": -1,
            "type": "decision_FB",
            "trial_index": 0,
            "trial_index_global": 128
        },
        {
            "rt": -1,
            "trial_type": "single-stim",
            "stimulus": "",
            "internal_chunk_id": "0-0.2-15.2-15",
            "time_elapsed": 169144,
            "key_press": -1,
            "trial_index": 0,
            "trial_index_global": 129
        },
        {
            "rt": 631,
            "trial_type": "single-stim",
            "stimulus": "<img class = 'decision-stim left' src='images/82.png'></img><img class = 'decision-stim right' src='images/83.png'></img>",
            "trial_count": 16,
            "internal_chunk_id": "0-0.2-16.0-16",
            "time_elapsed": 169877,
            "key_press": 39,
            "type": "decision_first",
            "trial_index": 0,
            "trial_index_global": 130
        },
        {
            "rt": -1,
            "trial_type": "single-stim",
            "stimulus": "<img class = 'decision-stim left' src='images/82.png'><img class = 'decision-stim right selected' src='images/83.png'>",
            "internal_chunk_id": "0-0.2-16.0-16",
            "time_elapsed": 170384,
            "key_press": -1,
            "trial_index": 0,
            "trial_index_global": 131
        },
        {
            "rt": -1,
            "trial_type": "single-stim",
            "stimulus": "",
            "internal_chunk_id": "0-0.2-16.0-16",
            "time_elapsed": 171387,
            "key_press": -1,
            "trial_index": 0,
            "trial_index_global": 132
        },
        {
            "rt": 335,
            "trial_type": "single-stim",
            "stimulus": "<img class = 'decision-stim left' src='images/81.png'></img><img class = 'decision-stim right' src='images/85.png'></img>",
            "trial_count": 16,
            "internal_chunk_id": "0-0.2-16",
            "time_elapsed": 171880,
            "key_press": 39,
            "type": "decision_second",
            "trial_index": 0,
            "trial_index_global": 133
        },
        {
            "rt": -1,
            "trial_type": "single-stim",
            "stimulus": "<img class = 'decision-stim left' src='images/81.png'><img class = 'decision-stim right selected' src='images/85.png'>",
            "internal_chunk_id": "0-0.2-16.2-16",
            "time_elapsed": 172387,
            "key_press": -1,
            "trial_index": 0,
            "trial_index_global": 134
        },
        {
            "rt": -1,
            "trial_type": "single-stim",
            "stimulus": "",
            "internal_chunk_id": "0-0.2-16.2-16",
            "time_elapsed": 173391,
            "key_press": -1,
            "trial_index": 0,
            "trial_index_global": 135
        },
        {
            "rt": -1,
            "trial_type": "single-stim",
            "stimulus": "<div style = text-align:center><p style = 'color:red;font-size:60px'>0</p></div>",
            "trial_count": 16,
            "internal_chunk_id": "0-0.2-16.2-16",
            "time_elapsed": 173896,
            "key_press": -1,
            "type": "decision_FB",
            "trial_index": 0,
            "trial_index_global": 136
        },
        {
            "rt": -1,
            "trial_type": "single-stim",
            "stimulus": "",
            "internal_chunk_id": "0-0.2-16.2-16",
            "time_elapsed": 174899,
            "key_press": -1,
            "trial_index": 0,
            "trial_index_global": 137
        },
        {
            "rt": 385,
            "trial_type": "single-stim",
            "stimulus": "<img class = 'decision-stim left' src='images/83.png'></img><img class = 'decision-stim right' src='images/82.png'></img>",
            "trial_count": 17,
            "internal_chunk_id": "0-0.2-17.0-17",
            "time_elapsed": 175388,
            "key_press": 37,
            "type": "decision_first",
            "trial_index": 0,
            "trial_index_global": 138
        },
        {
            "rt": -1,
            "trial_type": "single-stim",
            "stimulus": "<img class = 'decision-stim left selected' src='images/83.png'><img class = 'decision-stim right' src='images/82.png'>",
            "internal_chunk_id": "0-0.2-17.0-17",
            "time_elapsed": 175894,
            "key_press": -1,
            "trial_index": 0,
            "trial_index_global": 139
        },
        {
            "rt": -1,
            "trial_type": "single-stim",
            "stimulus": "",
            "internal_chunk_id": "0-0.2-17.0-17",
            "time_elapsed": 176896,
            "key_press": -1,
            "trial_index": 0,
            "trial_index_global": 140
        },
        {
            "rt": 713,
            "trial_type": "single-stim",
            "stimulus": "<img class = 'decision-stim left' src='images/84.png'></img><img class = 'decision-stim right' src='images/80.png'></img>",
            "trial_count": 17,
            "internal_chunk_id": "0-0.2-17",
            "time_elapsed": 177727,
            "key_press": 39,
            "type": "decision_second",
            "trial_index": 0,
            "trial_index_global": 141
        },
        {
            "rt": -1,
            "trial_type": "single-stim",
            "stimulus": "<img class = 'decision-stim left' src='images/84.png'><img class = 'decision-stim right selected' src='images/80.png'>",
            "internal_chunk_id": "0-0.2-17.2-17",
            "time_elapsed": 178233,
            "key_press": -1,
            "trial_index": 0,
            "trial_index_global": 142
        },
        {
            "rt": -1,
            "trial_type": "single-stim",
            "stimulus": "",
            "internal_chunk_id": "0-0.2-17.2-17",
            "time_elapsed": 179236,
            "key_press": -1,
            "trial_index": 0,
            "trial_index_global": 143
        },
        {
            "rt": -1,
            "trial_type": "single-stim",
            "stimulus": "<img class = 'decision-stim' src = 'images/gold_coin.png'></img>",
            "trial_count": 17,
            "internal_chunk_id": "0-0.2-17.2-17",
            "time_elapsed": 179743,
            "key_press": -1,
            "type": "decision_FB",
            "trial_index": 0,
            "trial_index_global": 144
        },
        {
            "rt": -1,
            "trial_type": "single-stim",
            "stimulus": "",
            "internal_chunk_id": "0-0.2-17.2-17",
            "time_elapsed": 180745,
            "key_press": -1,
            "trial_index": 0,
            "trial_index_global": 145
        },
        {
            "rt": 279,
            "trial_type": "single-stim",
            "stimulus": "<img class = 'decision-stim left' src='images/83.png'></img><img class = 'decision-stim right' src='images/82.png'></img>",
            "trial_count": 18,
            "internal_chunk_id": "0-0.2-18.0-18",
            "time_elapsed": 181147,
            "key_press": 37,
            "type": "decision_first",
            "trial_index": 0,
            "trial_index_global": 146
        },
        {
            "rt": -1,
            "trial_type": "single-stim",
            "stimulus": "<img class = 'decision-stim left selected' src='images/83.png'><img class = 'decision-stim right' src='images/82.png'>",
            "internal_chunk_id": "0-0.2-18.0-18",
            "time_elapsed": 181655,
            "key_press": -1,
            "trial_index": 0,
            "trial_index_global": 147
        },
        {
            "rt": -1,
            "trial_type": "single-stim",
            "stimulus": "",
            "internal_chunk_id": "0-0.2-18.0-18",
            "time_elapsed": 182657,
            "key_press": -1,
            "trial_index": 0,
            "trial_index_global": 148
        },
        {
            "rt": 1374,
            "trial_type": "single-stim",
            "stimulus": "<img class = 'decision-stim left' src='images/84.png'></img><img class = 'decision-stim right' src='images/80.png'></img>",
            "trial_count": 18,
            "internal_chunk_id": "0-0.2-18",
            "time_elapsed": 184206,
            "key_press": 39,
            "type": "decision_second",
            "trial_index": 0,
            "trial_index_global": 149
        },
        {
            "rt": -1,
            "trial_type": "single-stim",
            "stimulus": "<img class = 'decision-stim left' src='images/84.png'><img class = 'decision-stim right selected' src='images/80.png'>",
            "internal_chunk_id": "0-0.2-18.2-18",
            "time_elapsed": 184712,
            "key_press": -1,
            "trial_index": 0,
            "trial_index_global": 150
        },
        {
            "rt": -1,
            "trial_type": "single-stim",
            "stimulus": "",
            "internal_chunk_id": "0-0.2-18.2-18",
            "time_elapsed": 185715,
            "key_press": -1,
            "trial_index": 0,
            "trial_index_global": 151
        },
        {
            "rt": -1,
            "trial_type": "single-stim",
            "stimulus": "<div style = text-align:center><p style = 'color:red;font-size:60px'>0</p></div>",
            "trial_count": 18,
            "internal_chunk_id": "0-0.2-18.2-18",
            "time_elapsed": 186219,
            "key_press": -1,
            "type": "decision_FB",
            "trial_index": 0,
            "trial_index_global": 152
        },
        {
            "rt": -1,
            "trial_type": "single-stim",
            "stimulus": "",
            "internal_chunk_id": "0-0.2-18.2-18",
            "time_elapsed": 187222,
            "key_press": -1,
            "trial_index": 0,
            "trial_index_global": 153
        },
        {
            "rt": 831,
            "trial_type": "single-stim",
            "stimulus": "<img class = 'decision-stim left' src='images/83.png'></img><img class = 'decision-stim right' src='images/82.png'></img>",
            "trial_count": 19,
            "internal_chunk_id": "0-0.2-19.0-19",
            "time_elapsed": 188171,
            "key_press": 37,
            "type": "decision_first",
            "trial_index": 0,
            "trial_index_global": 154
        },
        {
            "rt": -1,
            "trial_type": "single-stim",
            "stimulus": "<img class = 'decision-stim left selected' src='images/83.png'><img class = 'decision-stim right' src='images/82.png'>",
            "internal_chunk_id": "0-0.2-19.0-19",
            "time_elapsed": 188678,
            "key_press": -1,
            "trial_index": 0,
            "trial_index_global": 155
        },
        {
            "rt": -1,
            "trial_type": "single-stim",
            "stimulus": "",
            "internal_chunk_id": "0-0.2-19.0-19",
            "time_elapsed": 189681,
            "key_press": -1,
            "trial_index": 0,
            "trial_index_global": 156
        },
        {
            "rt": 768,
            "trial_type": "single-stim",
            "stimulus": "<img class = 'decision-stim left' src='images/80.png'></img><img class = 'decision-stim right' src='images/84.png'></img>",
            "trial_count": 19,
            "internal_chunk_id": "0-0.2-19",
            "time_elapsed": 190571,
            "key_press": 37,
            "type": "decision_second",
            "trial_index": 0,
            "trial_index_global": 157
        },
        {
            "rt": -1,
            "trial_type": "single-stim",
            "stimulus": "<img class = 'decision-stim left selected' src='images/80.png'><img class = 'decision-stim right' src='images/84.png'>",
            "internal_chunk_id": "0-0.2-19.2-19",
            "time_elapsed": 191077,
            "key_press": -1,
            "trial_index": 0,
            "trial_index_global": 158
        },
        {
            "rt": -1,
            "trial_type": "single-stim",
            "stimulus": "",
            "internal_chunk_id": "0-0.2-19.2-19",
            "time_elapsed": 192079,
            "key_press": -1,
            "trial_index": 0,
            "trial_index_global": 159
        },
        {
            "rt": -1,
            "trial_type": "single-stim",
            "stimulus": "<img class = 'decision-stim' src = 'images/gold_coin.png'></img>",
            "trial_count": 19,
            "internal_chunk_id": "0-0.2-19.2-19",
            "time_elapsed": 192585,
            "key_press": -1,
            "type": "decision_FB",
            "trial_index": 0,
            "trial_index_global": 160
        },
        {
            "rt": -1,
            "trial_type": "single-stim",
            "stimulus": "",
            "internal_chunk_id": "0-0.2-19.2-19",
            "time_elapsed": 193588,
            "key_press": -1,
            "trial_index": 0,
            "trial_index_global": 161
        },
        {
            "rt": 150948,
            "trial_type": "text",
            "internal_chunk_id": "0-0",
            "time_elapsed": 344594,
            "key_press": 13,
            "trial_index": 0,
            "trial_index_global": 162
        },
        {
            "rt": -1,
            "trial_type": "single-stim",
            "stimulus": "",
            "internal_chunk_id": "0-0",
            "time_elapsed": 345603,
            "key_press": -1,
            "global_params": {
                "second_stage_stim": {
                    "stimulus": [
                        "<img class = 'decision-stim left' src='images/15.png'></img><img class = 'decision-stim right' src='images/11.png'></img>",
                        "<img class = 'decision-stim left' src='images/11.png'></img><img class = 'decision-stim right' src='images/15.png'></img>",
                        "<img class = 'decision-stim left' src='images/16.png'></img><img class = 'decision-stim right' src='images/14.png'></img>",
                        "<img class = 'decision-stim left' src='images/14.png'></img><img class = 'decision-stim right' src='images/16.png'></img>"
                    ],
                    "id": [
                        [
                            2,
                            3
                        ],
                        [
                            3,
                            2
                        ],
                        [
                            4,
                            5
                        ],
                        [
                            5,
                            4
                        ]
                    ]
                },
                "stims": [
                    "'images/13.png'",
                    "'images/12.png'",
                    "'images/15.png'",
                    "'images/11.png'",
                    "'images/16.png'",
                    "'images/14.png'"
                ],
                "fs_stim": [
                    {
                        "stimulus": "<img class = 'decision-stim left' src='images/13.png'></img><img class = 'decision-stim right' src='images/12.png'></img>",
                        "id": [
                            0,
                            1
                        ]
                    },
                    {
                        "stimulus": "<img class = 'decision-stim left' src='images/12.png'></img><img class = 'decision-stim right' src='images/13.png'></img>",
                        "id": [
                            1,
                            0
                        ]
                    }
                ],
                "condition": "test",
                "actions": [
                    37,
                    39
                ]
            },
            "type": "decision_global",
            "trial_index": 0,
            "trial_index_global": 163
        },
        {
            "rt": -1,
            "trial_type": "single-stim",
            "stimulus": "<img class = 'decision-stim left' src='images/13.png'></img><img class = 'decision-stim right' src='images/12.png'></img>",
            "trial_count": 0,
            "internal_chunk_id": "0-0.5-0.0-0",
            "time_elapsed": 347606,
            "key_press": -1,
            "type": "decision_first",
            "trial_index": 0,
            "trial_index_global": 164
        },
        {
            "rt": -1,
            "trial_type": "single-stim",
            "internal_chunk_id": "0-0.5-0.0-0",
            "time_elapsed": 348110,
            "key_press": -1,
            "trial_index": 0,
            "trial_index_global": 165
        },
        {
            "rt": -1,
            "trial_type": "single-stim",
            "stimulus": "",
            "internal_chunk_id": "0-0.5-0.0-0",
            "time_elapsed": 349113,
            "key_press": -1,
            "trial_index": 0,
            "trial_index_global": 166
        },
        {
            "rt": -1,
            "trial_type": "single-stim",
            "stimulus": "<div style = text-align:center><p style = font-size:30px>Please respond faster </p></div>",
            "trial_count": 0,
            "internal_chunk_id": "0-0.5-0",
            "time_elapsed": 351117,
            "key_press": -1,
            "type": "decision_second",
            "trial_index": 0,
            "trial_index_global": 167
        },
        {
            "rt": -1,
            "trial_type": "single-stim",
            "stimulus": "",
            "internal_chunk_id": "0-0.5-0.3-0",
            "time_elapsed": 352120,
            "key_press": -1,
            "trial_index": 0,
            "trial_index_global": 168
        },
        {
            "rt": 900,
            "trial_type": "single-stim",
            "stimulus": "<img class = 'decision-stim left' src='images/13.png'></img><img class = 'decision-stim right' src='images/12.png'></img>",
            "trial_count": 1,
            "internal_chunk_id": "0-0.5-1.0-1",
            "time_elapsed": 353113,
            "key_press": 39,
            "type": "decision_first",
            "trial_index": 0,
            "trial_index_global": 169
        },
        {
            "rt": -1,
            "trial_type": "single-stim",
            "stimulus": "<img class = 'decision-stim left' src='images/13.png'><img class = 'decision-stim right selected' src='images/12.png'>",
            "internal_chunk_id": "0-0.5-1.0-1",
            "time_elapsed": 353620,
            "key_press": -1,
            "trial_index": 0,
            "trial_index_global": 170
        },
        {
            "rt": -1,
            "trial_type": "single-stim",
            "stimulus": "",
            "internal_chunk_id": "0-0.5-1.0-1",
            "time_elapsed": 354623,
            "key_press": -1,
            "trial_index": 0,
            "trial_index_global": 171
        },
        {
            "rt": 1264,
            "trial_type": "single-stim",
            "stimulus": "<img class = 'decision-stim left' src='images/16.png'></img><img class = 'decision-stim right' src='images/14.png'></img>",
            "trial_count": 1,
            "internal_chunk_id": "0-0.5-1",
            "time_elapsed": 355990,
            "key_press": 37,
            "type": "decision_second",
            "trial_index": 0,
            "trial_index_global": 172
        },
        {
            "rt": -1,
            "trial_type": "single-stim",
            "stimulus": "<img class = 'decision-stim left selected' src='images/16.png'><img class = 'decision-stim right' src='images/14.png'>",
            "internal_chunk_id": "0-0.5-1.2-1",
            "time_elapsed": 356497,
            "key_press": -1,
            "trial_index": 0,
            "trial_index_global": 173
        },
        {
            "rt": -1,
            "trial_type": "single-stim",
            "stimulus": "",
            "internal_chunk_id": "0-0.5-1.2-1",
            "time_elapsed": 357499,
            "key_press": -1,
            "trial_index": 0,
            "trial_index_global": 174
        },
        {
            "rt": -1,
            "trial_type": "single-stim",
            "stimulus": "<div style = text-align:center><p style = 'color:red;font-size:60px'>0</p></div>",
            "trial_count": 1,
            "internal_chunk_id": "0-0.5-1.2-1",
            "time_elapsed": 358004,
            "key_press": -1,
            "type": "decision_FB",
            "trial_index": 0,
            "trial_index_global": 175
        },
        {
            "rt": -1,
            "trial_type": "single-stim",
            "stimulus": "",
            "internal_chunk_id": "0-0.5-1.2-1",
            "time_elapsed": 359006,
            "key_press": -1,
            "trial_index": 0,
            "trial_index_global": 176
        },
        {
            "rt": 710,
            "trial_type": "single-stim",
            "stimulus": "<img class = 'decision-stim left' src='images/13.png'></img><img class = 'decision-stim right' src='images/12.png'></img>",
            "trial_count": 2,
            "internal_chunk_id": "0-0.5-2.0-2",
            "time_elapsed": 359751,
            "key_press": 39,
            "type": "decision_first",
            "trial_index": 0,
            "trial_index_global": 177
        },
        {
            "rt": -1,
            "trial_type": "single-stim",
            "stimulus": "<img class = 'decision-stim left' src='images/13.png'><img class = 'decision-stim right selected' src='images/12.png'>",
            "internal_chunk_id": "0-0.5-2.0-2",
            "time_elapsed": 360257,
            "key_press": -1,
            "trial_index": 0,
            "trial_index_global": 178
        },
        {
            "rt": -1,
            "trial_type": "single-stim",
            "stimulus": "",
            "internal_chunk_id": "0-0.5-2.0-2",
            "time_elapsed": 361259,
            "key_press": -1,
            "trial_index": 0,
            "trial_index_global": 179
        },
        {
            "rt": 1726,
            "trial_type": "single-stim",
            "stimulus": "<img class = 'decision-stim left' src='images/11.png'></img><img class = 'decision-stim right' src='images/15.png'></img>",
            "trial_count": 2,
            "internal_chunk_id": "0-0.5-2",
            "time_elapsed": 363025,
            "key_press": 39,
            "type": "decision_second",
            "trial_index": 0,
            "trial_index_global": 180
        },
        {
            "rt": -1,
            "trial_type": "single-stim",
            "stimulus": "<img class = 'decision-stim left' src='images/11.png'><img class = 'decision-stim right selected' src='images/15.png'>",
            "internal_chunk_id": "0-0.5-2.2-2",
            "time_elapsed": 363532,
            "key_press": -1,
            "trial_index": 0,
            "trial_index_global": 181
        },
        {
            "rt": -1,
            "trial_type": "single-stim",
            "stimulus": "",
            "internal_chunk_id": "0-0.5-2.2-2",
            "time_elapsed": 364534,
            "key_press": -1,
            "trial_index": 0,
            "trial_index_global": 182
        },
        {
            "rt": -1,
            "trial_type": "single-stim",
            "stimulus": "<div style = text-align:center><p style = 'color:red;font-size:60px'>0</p></div>",
            "trial_count": 2,
            "internal_chunk_id": "0-0.5-2.2-2",
            "time_elapsed": 365039,
            "key_press": -1,
            "type": "decision_FB",
            "trial_index": 0,
            "trial_index_global": 183
        },
        {
            "rt": -1,
            "trial_type": "single-stim",
            "stimulus": "",
            "internal_chunk_id": "0-0.5-2.2-2",
            "time_elapsed": 366042,
            "key_press": -1,
            "trial_index": 0,
            "trial_index_global": 184
        },
        {
            "rt": 477,
            "trial_type": "single-stim",
            "stimulus": "<img class = 'decision-stim left' src='images/13.png'></img><img class = 'decision-stim right' src='images/12.png'></img>",
            "trial_count": 3,
            "internal_chunk_id": "0-0.5-3.0-3",
            "time_elapsed": 366581,
            "key_press": 39,
            "type": "decision_first",
            "trial_index": 0,
            "trial_index_global": 185
        },
        {
            "rt": -1,
            "trial_type": "single-stim",
            "stimulus": "<img class = 'decision-stim left' src='images/13.png'><img class = 'decision-stim right selected' src='images/12.png'>",
            "internal_chunk_id": "0-0.5-3.0-3",
            "time_elapsed": 367087,
            "key_press": -1,
            "trial_index": 0,
            "trial_index_global": 186
        },
        {
            "rt": -1,
            "trial_type": "single-stim",
            "stimulus": "",
            "internal_chunk_id": "0-0.5-3.0-3",
            "time_elapsed": 368090,
            "key_press": -1,
            "trial_index": 0,
            "trial_index_global": 187
        },
        {
            "rt": 808,
            "trial_type": "single-stim",
            "stimulus": "<img class = 'decision-stim left' src='images/11.png'></img><img class = 'decision-stim right' src='images/15.png'></img>",
            "trial_count": 3,
            "internal_chunk_id": "0-0.5-3",
            "time_elapsed": 368958,
            "key_press": 37,
            "type": "decision_second",
            "trial_index": 0,
            "trial_index_global": 188
        },
        {
            "rt": -1,
            "trial_type": "single-stim",
            "stimulus": "<img class = 'decision-stim left selected' src='images/11.png'><img class = 'decision-stim right' src='images/15.png'>",
            "internal_chunk_id": "0-0.5-3.2-3",
            "time_elapsed": 369467,
            "key_press": -1,
            "trial_index": 0,
            "trial_index_global": 189
        },
        {
            "rt": -1,
            "trial_type": "single-stim",
            "stimulus": "",
            "internal_chunk_id": "0-0.5-3.2-3",
            "time_elapsed": 370470,
            "key_press": -1,
            "trial_index": 0,
            "trial_index_global": 190
        },
        {
            "rt": -1,
            "trial_type": "single-stim",
            "stimulus": "<img class = 'decision-stim' src = 'images/gold_coin.png'></img>",
            "trial_count": 3,
            "internal_chunk_id": "0-0.5-3.2-3",
            "time_elapsed": 370977,
            "key_press": -1,
            "type": "decision_FB",
            "trial_index": 0,
            "trial_index_global": 191
        },
        {
            "rt": -1,
            "trial_type": "single-stim",
            "stimulus": "",
            "internal_chunk_id": "0-0.5-3.2-3",
            "time_elapsed": 371979,
            "key_press": -1,
            "trial_index": 0,
            "trial_index_global": 192
        },
        {
            "rt": 1180,
            "trial_type": "single-stim",
            "stimulus": "<img class = 'decision-stim left' src='images/12.png'></img><img class = 'decision-stim right' src='images/13.png'></img>",
            "trial_count": 4,
            "internal_chunk_id": "0-0.5-4.0-4",
            "time_elapsed": 373228,
            "key_press": 37,
            "type": "decision_first",
            "trial_index": 0,
            "trial_index_global": 193
        },
        {
            "rt": -1,
            "trial_type": "single-stim",
            "stimulus": "<img class = 'decision-stim left selected' src='images/12.png'><img class = 'decision-stim right' src='images/13.png'>",
            "internal_chunk_id": "0-0.5-4.0-4",
            "time_elapsed": 373734,
            "key_press": -1,
            "trial_index": 0,
            "trial_index_global": 194
        },
        {
            "rt": -1,
            "trial_type": "single-stim",
            "stimulus": "",
            "internal_chunk_id": "0-0.5-4.0-4",
            "time_elapsed": 374737,
            "key_press": -1,
            "trial_index": 0,
            "trial_index_global": 195
        },
        {
            "rt": 1512,
            "trial_type": "single-stim",
            "stimulus": "<img class = 'decision-stim left' src='images/14.png'></img><img class = 'decision-stim right' src='images/16.png'></img>",
            "trial_count": 4,
            "internal_chunk_id": "0-0.5-4",
            "time_elapsed": 376325,
            "key_press": 37,
            "type": "decision_second",
            "trial_index": 0,
            "trial_index_global": 196
        },
        {
            "rt": -1,
            "trial_type": "single-stim",
            "stimulus": "<img class = 'decision-stim left selected' src='images/14.png'><img class = 'decision-stim right' src='images/16.png'>",
            "internal_chunk_id": "0-0.5-4.2-4",
            "time_elapsed": 376832,
            "key_press": -1,
            "trial_index": 0,
            "trial_index_global": 197
        },
        {
            "rt": -1,
            "trial_type": "single-stim",
            "stimulus": "",
            "internal_chunk_id": "0-0.5-4.2-4",
            "time_elapsed": 377835,
            "key_press": -1,
            "trial_index": 0,
            "trial_index_global": 198
        },
        {
            "rt": -1,
            "trial_type": "single-stim",
            "stimulus": "<div style = text-align:center><p style = 'color:red;font-size:60px'>0</p></div>",
            "trial_count": 4,
            "internal_chunk_id": "0-0.5-4.2-4",
            "time_elapsed": 378339,
            "key_press": -1,
            "type": "decision_FB",
            "trial_index": 0,
            "trial_index_global": 199
        },
        {
            "rt": -1,
            "trial_type": "single-stim",
            "stimulus": "",
            "internal_chunk_id": "0-0.5-4.2-4",
            "time_elapsed": 379341,
            "key_press": -1,
            "trial_index": 0,
            "trial_index_global": 200
        },
        {
            "rt": 662,
            "trial_type": "single-stim",
            "stimulus": "<img class = 'decision-stim left' src='images/12.png'></img><img class = 'decision-stim right' src='images/13.png'></img>",
            "trial_count": 5,
            "internal_chunk_id": "0-0.5-5.0-5",
            "time_elapsed": 380041,
            "key_press": 37,
            "type": "decision_first",
            "trial_index": 0,
            "trial_index_global": 201
        },
        {
            "rt": -1,
            "trial_type": "single-stim",
            "stimulus": "<img class = 'decision-stim left selected' src='images/12.png'><img class = 'decision-stim right' src='images/13.png'>",
            "internal_chunk_id": "0-0.5-5.0-5",
            "time_elapsed": 380547,
            "key_press": -1,
            "trial_index": 0,
            "trial_index_global": 202
        },
        {
            "rt": -1,
            "trial_type": "single-stim",
            "stimulus": "",
            "internal_chunk_id": "0-0.5-5.0-5",
            "time_elapsed": 381549,
            "key_press": -1,
            "trial_index": 0,
            "trial_index_global": 203
        },
        {
            "rt": 1384,
            "trial_type": "single-stim",
            "stimulus": "<img class = 'decision-stim left' src='images/16.png'></img><img class = 'decision-stim right' src='images/14.png'></img>",
            "trial_count": 5,
            "internal_chunk_id": "0-0.5-5",
            "time_elapsed": 383015,
            "key_press": 37,
            "type": "decision_second",
            "trial_index": 0,
            "trial_index_global": 204
        },
        {
            "rt": -1,
            "trial_type": "single-stim",
            "stimulus": "<img class = 'decision-stim left selected' src='images/16.png'><img class = 'decision-stim right' src='images/14.png'>",
            "internal_chunk_id": "0-0.5-5.2-5",
            "time_elapsed": 383523,
            "key_press": -1,
            "trial_index": 0,
            "trial_index_global": 205
        },
        {
            "rt": -1,
            "trial_type": "single-stim",
            "stimulus": "",
            "internal_chunk_id": "0-0.5-5.2-5",
            "time_elapsed": 384526,
            "key_press": -1,
            "trial_index": 0,
            "trial_index_global": 206
        },
        {
            "rt": -1,
            "trial_type": "single-stim",
            "stimulus": "<div style = text-align:center><p style = 'color:red;font-size:60px'>0</p></div>",
            "trial_count": 5,
            "internal_chunk_id": "0-0.5-5.2-5",
            "time_elapsed": 385031,
            "key_press": -1,
            "type": "decision_FB",
            "trial_index": 0,
            "trial_index_global": 207
        },
        {
            "rt": -1,
            "trial_type": "single-stim",
            "stimulus": "",
            "internal_chunk_id": "0-0.5-5.2-5",
            "time_elapsed": 386032,
            "key_press": -1,
            "trial_index": 0,
            "trial_index_global": 208
        },
        {
            "rt": 1572,
            "trial_type": "single-stim",
            "stimulus": "<img class = 'decision-stim left' src='images/13.png'></img><img class = 'decision-stim right' src='images/12.png'></img>",
            "trial_count": 6,
            "internal_chunk_id": "0-0.5-6.0-6",
            "time_elapsed": 387677,
            "key_press": 39,
            "type": "decision_first",
            "trial_index": 0,
            "trial_index_global": 209
        },
        {
            "rt": -1,
            "trial_type": "single-stim",
            "stimulus": "<img class = 'decision-stim left' src='images/13.png'><img class = 'decision-stim right selected' src='images/12.png'>",
            "internal_chunk_id": "0-0.5-6.0-6",
            "time_elapsed": 388186,
            "key_press": -1,
            "trial_index": 0,
            "trial_index_global": 210
        },
        {
            "rt": -1,
            "trial_type": "single-stim",
            "stimulus": "",
            "internal_chunk_id": "0-0.5-6.0-6",
            "time_elapsed": 389190,
            "key_press": -1,
            "trial_index": 0,
            "trial_index_global": 211
        },
        {
            "rt": 1261,
            "trial_type": "single-stim",
            "stimulus": "<img class = 'decision-stim left' src='images/14.png'></img><img class = 'decision-stim right' src='images/16.png'></img>",
            "trial_count": 6,
            "internal_chunk_id": "0-0.5-6",
            "time_elapsed": 390522,
            "key_press": 37,
            "type": "decision_second",
            "trial_index": 0,
            "trial_index_global": 212
        },
        {
            "rt": -1,
            "trial_type": "single-stim",
            "stimulus": "<img class = 'decision-stim left selected' src='images/14.png'><img class = 'decision-stim right' src='images/16.png'>",
            "internal_chunk_id": "0-0.5-6.2-6",
            "time_elapsed": 391030,
            "key_press": -1,
            "trial_index": 0,
            "trial_index_global": 213
        },
        {
            "rt": -1,
            "trial_type": "single-stim",
            "stimulus": "",
            "internal_chunk_id": "0-0.5-6.2-6",
            "time_elapsed": 392033,
            "key_press": -1,
            "trial_index": 0,
            "trial_index_global": 214
        },
        {
            "rt": -1,
            "trial_type": "single-stim",
            "stimulus": "<div style = text-align:center><p style = 'color:red;font-size:60px'>0</p></div>",
            "trial_count": 6,
            "internal_chunk_id": "0-0.5-6.2-6",
            "time_elapsed": 392539,
            "key_press": -1,
            "type": "decision_FB",
            "trial_index": 0,
            "trial_index_global": 215
        },
        {
            "rt": -1,
            "trial_type": "single-stim",
            "stimulus": "",
            "internal_chunk_id": "0-0.5-6.2-6",
            "time_elapsed": 393541,
            "key_press": -1,
            "trial_index": 0,
            "trial_index_global": 216
        },
        {
            "rt": 1118,
            "trial_type": "single-stim",
            "stimulus": "<img class = 'decision-stim left' src='images/12.png'></img><img class = 'decision-stim right' src='images/13.png'></img>",
            "trial_count": 7,
            "internal_chunk_id": "0-0.5-7.0-7",
            "time_elapsed": 394738,
            "key_press": 39,
            "type": "decision_first",
            "trial_index": 0,
            "trial_index_global": 217
        },
        {
            "rt": -1,
            "trial_type": "single-stim",
            "stimulus": "<img class = 'decision-stim left' src='images/12.png'><img class = 'decision-stim right selected' src='images/13.png'>",
            "internal_chunk_id": "0-0.5-7.0-7",
            "time_elapsed": 395245,
            "key_press": -1,
            "trial_index": 0,
            "trial_index_global": 218
        },
        {
            "rt": -1,
            "trial_type": "single-stim",
            "stimulus": "",
            "internal_chunk_id": "0-0.5-7.0-7",
            "time_elapsed": 396248,
            "key_press": -1,
            "trial_index": 0,
            "trial_index_global": 219
        },
        {
            "rt": 674,
            "trial_type": "single-stim",
            "stimulus": "<img class = 'decision-stim left' src='images/15.png'></img><img class = 'decision-stim right' src='images/11.png'></img>",
            "trial_count": 7,
            "internal_chunk_id": "0-0.5-7",
            "time_elapsed": 396985,
            "key_press": 37,
            "type": "decision_second",
            "trial_index": 0,
            "trial_index_global": 220
        },
        {
            "rt": -1,
            "trial_type": "single-stim",
            "stimulus": "<img class = 'decision-stim left selected' src='images/15.png'><img class = 'decision-stim right' src='images/11.png'>",
            "internal_chunk_id": "0-0.5-7.2-7",
            "time_elapsed": 397491,
            "key_press": -1,
            "trial_index": 0,
            "trial_index_global": 221
        },
        {
            "rt": -1,
            "trial_type": "single-stim",
            "stimulus": "",
            "internal_chunk_id": "0-0.5-7.2-7",
            "time_elapsed": 398494,
            "key_press": -1,
            "trial_index": 0,
            "trial_index_global": 222
        },
        {
            "rt": -1,
            "trial_type": "single-stim",
            "stimulus": "<img class = 'decision-stim' src = 'images/gold_coin.png'></img>",
            "trial_count": 7,
            "internal_chunk_id": "0-0.5-7.2-7",
            "time_elapsed": 399001,
            "key_press": -1,
            "type": "decision_FB",
            "trial_index": 0,
            "trial_index_global": 223
        },
        {
            "rt": -1,
            "trial_type": "single-stim",
            "stimulus": "",
            "internal_chunk_id": "0-0.5-7.2-7",
            "time_elapsed": 400004,
            "key_press": -1,
            "trial_index": 0,
            "trial_index_global": 224
        },
        {
            "rt": 978,
            "trial_type": "single-stim",
            "stimulus": "<img class = 'decision-stim left' src='images/13.png'></img><img class = 'decision-stim right' src='images/12.png'></img>",
            "trial_count": 8,
            "internal_chunk_id": "0-0.5-8.0-8",
            "time_elapsed": 401045,
            "key_press": 39,
            "type": "decision_first",
            "trial_index": 0,
            "trial_index_global": 225
        },
        {
            "rt": -1,
            "trial_type": "single-stim",
            "stimulus": "<img class = 'decision-stim left' src='images/13.png'><img class = 'decision-stim right selected' src='images/12.png'>",
            "internal_chunk_id": "0-0.5-8.0-8",
            "time_elapsed": 401551,
            "key_press": -1,
            "trial_index": 0,
            "trial_index_global": 226
        },
        {
            "rt": -1,
            "trial_type": "single-stim",
            "stimulus": "",
            "internal_chunk_id": "0-0.5-8.0-8",
            "time_elapsed": 402554,
            "key_press": -1,
            "trial_index": 0,
            "trial_index_global": 227
        },
        {
            "rt": 881,
            "trial_type": "single-stim",
            "stimulus": "<img class = 'decision-stim left' src='images/16.png'></img><img class = 'decision-stim right' src='images/14.png'></img>",
            "trial_count": 8,
            "internal_chunk_id": "0-0.5-8",
            "time_elapsed": 403498,
            "key_press": 39,
            "type": "decision_second",
            "trial_index": 0,
            "trial_index_global": 228
        },
        {
            "rt": -1,
            "trial_type": "single-stim",
            "stimulus": "<img class = 'decision-stim left' src='images/16.png'><img class = 'decision-stim right selected' src='images/14.png'>",
            "internal_chunk_id": "0-0.5-8.2-8",
            "time_elapsed": 404006,
            "key_press": -1,
            "trial_index": 0,
            "trial_index_global": 229
        },
        {
            "rt": -1,
            "trial_type": "single-stim",
            "stimulus": "",
            "internal_chunk_id": "0-0.5-8.2-8",
            "time_elapsed": 405008,
            "key_press": -1,
            "trial_index": 0,
            "trial_index_global": 230
        },
        {
            "rt": -1,
            "trial_type": "single-stim",
            "stimulus": "<img class = 'decision-stim' src = 'images/gold_coin.png'></img>",
            "trial_count": 8,
            "internal_chunk_id": "0-0.5-8.2-8",
            "time_elapsed": 405515,
            "key_press": -1,
            "type": "decision_FB",
            "trial_index": 0,
            "trial_index_global": 231
        },
        {
            "rt": -1,
            "trial_type": "single-stim",
            "stimulus": "",
            "internal_chunk_id": "0-0.5-8.2-8",
            "time_elapsed": 406518,
            "key_press": -1,
            "trial_index": 0,
            "trial_index_global": 232
        },
        {
            "rt": 1141,
            "trial_type": "single-stim",
            "stimulus": "<img class = 'decision-stim left' src='images/12.png'></img><img class = 'decision-stim right' src='images/13.png'></img>",
            "trial_count": 9,
            "internal_chunk_id": "0-0.5-9.0-9",
            "time_elapsed": 407730,
            "key_press": 39,
            "type": "decision_first",
            "trial_index": 0,
            "trial_index_global": 233
        },
        {
            "rt": -1,
            "trial_type": "single-stim",
            "stimulus": "<img class = 'decision-stim left' src='images/12.png'><img class = 'decision-stim right selected' src='images/13.png'>",
            "internal_chunk_id": "0-0.5-9.0-9",
            "time_elapsed": 408237,
            "key_press": -1,
            "trial_index": 0,
            "trial_index_global": 234
        },
        {
            "rt": -1,
            "trial_type": "single-stim",
            "stimulus": "",
            "internal_chunk_id": "0-0.5-9.0-9",
            "time_elapsed": 409239,
            "key_press": -1,
            "trial_index": 0,
            "trial_index_global": 235
        },
        {
            "rt": 1065,
            "trial_type": "single-stim",
            "stimulus": "<img class = 'decision-stim left' src='images/16.png'></img><img class = 'decision-stim right' src='images/14.png'></img>",
            "trial_count": 9,
            "internal_chunk_id": "0-0.5-9",
            "time_elapsed": 410387,
            "key_press": 39,
            "type": "decision_second",
            "trial_index": 0,
            "trial_index_global": 236
        },
        {
            "rt": -1,
            "trial_type": "single-stim",
            "stimulus": "<img class = 'decision-stim left' src='images/16.png'><img class = 'decision-stim right selected' src='images/14.png'>",
            "internal_chunk_id": "0-0.5-9.2-9",
            "time_elapsed": 410898,
            "key_press": -1,
            "trial_index": 0,
            "trial_index_global": 237
        },
        {
            "rt": -1,
            "trial_type": "single-stim",
            "stimulus": "",
            "internal_chunk_id": "0-0.5-9.2-9",
            "time_elapsed": 411902,
            "key_press": -1,
            "trial_index": 0,
            "trial_index_global": 238
        },
        {
            "rt": -1,
            "trial_type": "single-stim",
            "stimulus": "<img class = 'decision-stim' src = 'images/gold_coin.png'></img>",
            "trial_count": 9,
            "internal_chunk_id": "0-0.5-9.2-9",
            "time_elapsed": 412410,
            "key_press": -1,
            "type": "decision_FB",
            "trial_index": 0,
            "trial_index_global": 239
        },
        {
            "rt": -1,
            "trial_type": "single-stim",
            "stimulus": "",
            "internal_chunk_id": "0-0.5-9.2-9",
            "time_elapsed": 413413,
            "key_press": -1,
            "trial_index": 0,
            "trial_index_global": 240
        },
        {
            "rt": 1350,
            "trial_type": "single-stim",
            "stimulus": "<img class = 'decision-stim left' src='images/13.png'></img><img class = 'decision-stim right' src='images/12.png'></img>",
            "trial_count": 10,
            "internal_chunk_id": "0-0.5-10.0-10",
            "time_elapsed": 414832,
            "key_press": 37,
            "type": "decision_first",
            "trial_index": 0,
            "trial_index_global": 241
        },
        {
            "rt": -1,
            "trial_type": "single-stim",
            "stimulus": "<img class = 'decision-stim left selected' src='images/13.png'><img class = 'decision-stim right' src='images/12.png'>",
            "internal_chunk_id": "0-0.5-10.0-10",
            "time_elapsed": 415339,
            "key_press": -1,
            "trial_index": 0,
            "trial_index_global": 242
        },
        {
            "rt": -1,
            "trial_type": "single-stim",
            "stimulus": "",
            "internal_chunk_id": "0-0.5-10.0-10",
            "time_elapsed": 416341,
            "key_press": -1,
            "trial_index": 0,
            "trial_index_global": 243
        },
        {
            "rt": 777,
            "trial_type": "single-stim",
            "stimulus": "<img class = 'decision-stim left' src='images/15.png'></img><img class = 'decision-stim right' src='images/11.png'></img>",
            "trial_count": 10,
            "internal_chunk_id": "0-0.5-10",
            "time_elapsed": 417190,
            "key_press": 37,
            "type": "decision_second",
            "trial_index": 0,
            "trial_index_global": 244
        },
        {
            "rt": -1,
            "trial_type": "single-stim",
            "stimulus": "<img class = 'decision-stim left selected' src='images/15.png'><img class = 'decision-stim right' src='images/11.png'>",
            "internal_chunk_id": "0-0.5-10.2-10",
            "time_elapsed": 417699,
            "key_press": -1,
            "trial_index": 0,
            "trial_index_global": 245
        },
        {
            "rt": -1,
            "trial_type": "single-stim",
            "stimulus": "",
            "internal_chunk_id": "0-0.5-10.2-10",
            "time_elapsed": 418702,
            "key_press": -1,
            "trial_index": 0,
