trial,rt,type,color_choice,word_color,word_text,congruent,correct,repeat_stim,id
0,1058,practice,blue,blue,red,False,True,False,002
1,744,practice,red,red,red,True,True,False,002
2,914,practice,blue,blue,green,False,True,False,002
3,891,practice,blue,blue,green,False,True,True,002
4,1018,practice,red,red,blue,False,True,False,002
5,610,practice,blue,blue,blue,True,True,False,002
6,865,practice,blue,blue,blue,True,True,True,002
7,907,practice,green,green,red,False,True,False,002
8,643,practice,red,red,red,True,True,False,002
9,914,practice,green,green,blue,False,True,False,002
10,593,practice,green,green,green,True,True,False,002
11,565,practice,red,red,red,True,True,False,002
12,633,practice,green,green,green,True,True,False,002
13,801,practice,red,red,green,False,True,False,002
14,680,practice,blue,red,blue,False,False,False,002
15,665,practice,green,green,blue,False,True,False,002
16,728,practice,red,red,red,True,True,False,002
17,705,practice,green,green,red,False,True,False,002
18,792,practice,blue,blue,blue,True,True,False,002
19,750,practice,red,red,green,False,True,False,002
20,935,practice,blue,blue,blue,True,True,False,002
21,729,practice,red,blue,red,False,False,False,002
22,725,practice,green,green,green,True,True,False,002
23,814,practice,green,green,green,True,True,True,002
24,623,frequent,green,green,green,True,True,True,002
25,855,frequent,blue,blue,red,False,True,False,002
26,824,frequent,green,green,red,False,True,False,002
27,848,frequent,green,green,blue,False,True,False,002
28,598,frequent,green,green,blue,False,True,True,002
29,960,frequent,blue,blue,green,False,True,False,002
30,690,frequent,green,green,blue,False,True,False,002
31,649,frequent,red,red,blue,False,True,False,002
32,761,frequent,red,red,green,False,True,False,002
33,714,frequent,green,green,red,False,True,False,002
34,674,frequent,red,red,red,True,True,False,002
35,672,frequent,blue,blue,red,False,True,False,002
36,963,frequent,green,blue,green,False,False,False,002
37,848,frequent,blue,blue,blue,True,True,False,002
38,761,frequent,red,red,blue,False,True,False,002
39,1096,frequent,red,red,green,False,True,False,002
40,697,frequent,blue,green,red,False,False,False,002
41,1295,frequent,blue,green,red,False,False,True,002
42,696,frequent,red,red,red,True,True,False,002
43,919,frequent,red,red,green,False,True,False,002
44,848,frequent,blue,blue,green,False,True,False,002
45,898,frequent,green,green,red,False,True,False,002
46,714,frequent,red,red,green,False,True,False,002
47,1505,frequent,red,red,blue,False,True,False,002
48,1009,frequent,blue,blue,green,False,True,False,002
49,1033,frequent,red,red,green,False,True,False,002
50,1569,frequent,green,green,red,False,True,False,002
51,1273,frequent,red,red,blue,False,True,False,002
52,959,frequent,blue,blue,green,False,True,False,002
53,872,frequent,green,green,red,False,True,False,002
54,1544,frequent,red,red,blue,False,True,False,002
55,1001,frequent,green,green,green,True,True,False,002
56,985,frequent,blue,blue,red,False,True,False,002
57,921,frequent,red,red,blue,False,True,False,002
58,1505,frequent,blue,blue,green,False,True,False,002
59,888,frequent,green,green,red,False,True,False,002
60,982,frequent,blue,blue,green,False,True,False,002
61,872,frequent,blue,blue,red,False,True,False,002
62,711,frequent,blue,blue,green,False,True,False,002
63,735,frequent,red,red,green,False,True,False,002
64,1094,frequent,green,green,red,False,True,False,002
65,1071,frequent,blue,blue,blue,True,True,False,002
66,919,frequent,green,green,green,True,True,False,002
67,735,frequent,red,red,green,False,True,False,002
68,1144,frequent,green,green,blue,False,True,False,002
69,1073,frequent,blue,blue,green,False,True,False,002
70,712,frequent,red,red,blue,False,True,False,002
71,751,frequent,blue,blue,blue,True,True,False,002
72,711,frequent,red,blue,red,False,False,False,002
73,894,frequent,green,green,green,True,True,False,002
74,646,frequent,red,red,red,True,True,False,002
75,582,frequent,red,red,red,True,True,True,002
76,831,frequent,blue,blue,blue,True,True,False,002
77,646,frequent,blue,blue,blue,True,True,True,002
78,647,frequent,green,green,blue,False,True,False,002
79,661,frequent,green,green,blue,False,True,True,002
80,712,frequent,blue,blue,red,False,True,False,002
81,1095,frequent,green,green,green,True,True,False,002
82,1517,frequent,blue,red,blue,False,False,False,002
83,687,frequent,red,red,red,True,True,False,002
84,685,frequent,green,green,red,False,True,False,002
85,933,frequent,green,green,blue,False,True,False,002
86,671,frequent,red,red,red,True,True,False,002
87,1607,frequent,blue,red,green,False,False,False,002
88,1639,frequent,blue,blue,green,False,True,False,002
89,823,frequent,green,green,red,False,True,False,002
90,759,frequent,red,red,green,False,True,False,002
91,1382,frequent,green,green,green,True,True,False,002
92,846,frequent,red,blue,blue,True,False,False,002
93,1318,frequent,green,green,blue,False,True,False,002
94,1007,frequent,blue,red,blue,False,False,False,002
95,1029,frequent,green,green,blue,False,True,False,002
96,1205,frequent,green,green,red,False,True,False,002
97,957,frequent,red,red,red,True,True,False,002
98,1054,frequent,green,green,blue,False,True,False,002
99,1494,frequent,blue,blue,green,False,True,False,002
100,758,frequent,green,green,blue,False,True,False,002
101,1453,frequent,blue,blue,red,False,True,False,002
102,919,frequent,blue,blue,green,False,True,False,002
103,1163,frequent,red,red,blue,False,True,False,002
104,734,frequent,green,green,blue,False,True,False,002
105,1094,frequent,red,red,blue,False,True,False,002
106,859,frequent,green,green,red,False,True,False,002
107,694,frequent,blue,blue,green,False,True,False,002
108,732,frequent,blue,blue,red,False,True,False,002
109,1181,frequent,red,red,green,False,True,False,002
110,733,frequent,red,red,blue,False,True,False,002
111,805,frequent,blue,blue,red,False,True,False,002
112,694,frequent,blue,blue,red,False,True,True,002
113,774,frequent,green,green,red,False,True,False,002
114,1278,frequent,blue,blue,red,False,True,False,002
115,976,frequent,red,red,green,False,True,False,002
116,891,frequent,green,green,blue,False,True,False,002
117,981,frequent,blue,blue,red,False,True,False,002
118,1413,frequent,red,red,blue,False,True,False,002
119,1429,frequent,green,green,red,False,True,False,002
120,2267,frequent,blue,blue,red,False,True,False,002
121,982,frequent,red,red,green,False,True,False,002
122,1430,frequent,blue,blue,red,False,True,False,002
123,718,frequent,red,red,green,False,True,False,002
124,821,frequent,green,green,green,True,True,False,002
125,1227,frequent,green,green,blue,False,True,False,002
126,1075,frequent,red,red,green,False,True,False,002
127,659,frequent,red,red,green,False,True,True,002
128,780,frequent,green,green,red,False,True,False,002
129,755,frequent,blue,red,blue,False,False,False,002
130,779,frequent,red,red,red,True,True,False,002
131,732,frequent,red,red,blue,False,True,False,002
132,1004,frequent,blue,blue,green,False,True,False,002
133,956,frequent,red,red,blue,False,True,False,002
134,1053,frequent,green,green,blue,False,True,False,002
135,1325,frequent,blue,blue,blue,True,True,False,002
136,780,frequent,blue,blue,red,False,True,False,002
137,779,frequent,blue,blue,blue,True,True,False,002
138,668,frequent,blue,blue,green,False,True,False,002
139,1404,frequent,green,green,green,True,True,False,002
140,707,frequent,green,green,blue,False,True,False,002
141,906,frequent,blue,blue,red,False,True,False,002
142,708,frequent,red,red,green,False,True,False,002
143,1453,frequent,blue,blue,green,False,True,False,002
144,991,infrequent,green,green,red,False,True,False,002
145,1113,infrequent,blue,blue,blue,True,True,False,002
146,707,infrequent,red,red,red,True,True,False,002
147,915,infrequent,blue,blue,blue,True,True,False,002
148,1004,infrequent,red,red,blue,False,True,False,002
149,779,infrequent,blue,blue,blue,True,True,False,002
150,707,infrequent,blue,blue,blue,True,True,True,002
151,619,infrequent,red,red,red,True,True,False,002
152,691,infrequent,green,green,green,True,True,False,002
153,555,infrequent,green,green,green,True,True,True,002
154,667,infrequent,blue,blue,blue,True,True,False,002
155,571,infrequent,red,red,red,True,True,False,002
156,1225,infrequent,blue,blue,blue,True,True,False,002
157,619,infrequent,red,red,red,True,True,False,002
158,731,infrequent,green,green,green,True,True,False,002
159,1028,infrequent,blue,blue,blue,True,True,False,002
160,1044,infrequent,green,green,red,False,True,False,002
161,644,infrequent,green,green,green,True,True,False,002
162,659,infrequent,green,green,blue,False,True,False,002
163,865,infrequent,blue,blue,green,False,True,False,002
164,594,infrequent,blue,blue,blue,True,True,False,002
165,642,infrequent,green,green,green,True,True,False,002
166,954,infrequent,blue,blue,blue,True,True,False,002
167,665,infrequent,red,red,red,True,True,False,002
168,1185,infrequent,red,red,green,False,True,False,002
169,842,infrequent,red,red,red,True,True,False,002
170,479,infrequent,red,red,blue,False,True,False,002
171,930,infrequent,green,green,green,True,True,False,002
172,955,infrequent,red,red,blue,False,True,False,002
173,545,infrequent,red,red,red,True,True,False,002
174,531,infrequent,red,red,green,False,True,False,002
175,641,infrequent,green,green,green,True,True,False,002
176,506,infrequent,green,green,green,True,True,True,002
177,504,infrequent,green,green,green,True,True,True,002
178,706,infrequent,red,red,red,True,True,False,002
179,841,infrequent,blue,blue,green,False,True,False,002
180,481,infrequent,blue,blue,blue,True,True,False,002
181,577,infrequent,blue,blue,blue,True,True,True,002
182,616,infrequent,blue,blue,green,False,True,False,002
183,728,infrequent,red,red,red,True,True,False,002
184,569,infrequent,red,red,red,True,True,True,002
185,842,infrequent,green,green,green,True,True,False,002
186,1050,infrequent,blue,blue,red,False,True,False,002
187,1063,infrequent,red,red,green,False,True,False,002
188,754,infrequent,blue,blue,blue,True,True,False,002
189,616,infrequent,blue,blue,blue,True,True,True,002
190,591,infrequent,blue,blue,blue,True,True,True,002
191,681,infrequent,red,red,red,True,True,False,002
192,480,infrequent,red,red,red,True,True,True,002
193,578,infrequent,blue,blue,blue,True,True,False,002
194,664,infrequent,green,green,green,True,True,False,002
195,529,infrequent,green,green,green,True,True,True,002
196,1151,infrequent,blue,blue,red,False,True,False,002
197,704,infrequent,green,green,green,True,True,False,002
198,977,infrequent,blue,blue,blue,True,True,False,002
199,817,infrequent,red,red,red,True,True,False,002
200,1041,infrequent,green,green,green,True,True,False,002
201,913,infrequent,blue,blue,blue,True,True,False,002
202,750,infrequent,green,green,green,True,True,False,002
203,880,infrequent,red,red,red,True,True,False,002
204,1423,infrequent,green,green,green,True,True,False,002
205,688,infrequent,red,red,red,True,True,False,002
206,887,infrequent,green,green,green,True,True,False,002
207,776,infrequent,blue,blue,blue,True,True,False,002
208,686,infrequent,green,green,green,True,True,False,002
209,704,infrequent,blue,blue,blue,True,True,False,002
210,657,infrequent,red,red,red,True,True,False,002
211,1201,infrequent,blue,blue,red,False,True,False,002
212,689,infrequent,green,green,green,True,True,False,002
213,656,infrequent,green,green,green,True,True,True,002
214,574,infrequent,red,red,red,True,True,False,002
215,735,infrequent,blue,blue,blue,True,True,False,002
216,1023,infrequent,red,red,red,True,True,False,002
217,838,infrequent,blue,blue,blue,True,True,False,002
218,1583,infrequent,red,red,red,True,True,False,002
219,1197,infrequent,blue,blue,red,False,True,False,002
220,743,infrequent,blue,blue,blue,True,True,False,002
221,528,infrequent,blue,blue,blue,True,True,True,002
222,800,infrequent,red,red,red,True,True,False,002
223,656,infrequent,blue,blue,blue,True,True,False,002
224,1151,infrequent,green,green,blue,False,True,False,002
225,686,infrequent,blue,blue,blue,True,True,False,002
226,686,infrequent,green,green,green,True,True,False,002
227,503,infrequent,green,green,green,True,True,True,002
228,575,infrequent,red,red,red,True,True,False,002
229,679,infrequent,red,red,red,True,True,True,002
230,628,infrequent,blue,blue,blue,True,True,False,002
231,567,infrequent,blue,blue,blue,True,True,True,002
232,614,infrequent,red,red,red,True,True,False,002
233,1039,infrequent,blue,green,green,True,False,False,002
234,911,infrequent,red,red,red,True,True,False,002
235,814,infrequent,green,green,blue,False,True,False,002
236,863,infrequent,green,green,green,True,True,False,002
237,543,infrequent,green,green,green,True,True,True,002
238,727,infrequent,red,red,red,True,True,False,002
239,525,infrequent,red,red,red,True,True,True,002
240,790,infrequent,green,green,green,True,True,False,002
241,725,infrequent,blue,blue,green,False,True,False,002
242,701,infrequent,blue,blue,blue,True,True,False,002
243,477,infrequent,blue,blue,blue,True,True,True,002
244,862,infrequent,red,red,red,True,True,False,002
245,862,infrequent,blue,blue,blue,True,True,False,002
246,722,infrequent,red,red,green,False,True,False,002
247,790,infrequent,green,green,green,True,True,False,002
248,639,infrequent,green,green,red,False,True,False,002
249,455,infrequent,green,green,green,True,True,False,002
250,455,infrequent,green,green,blue,False,True,False,002
251,477,infrequent,green,green,green,True,True,False,002
252,1182,infrequent,red,red,blue,False,True,False,002
253,613,infrequent,red,red,red,True,True,False,002
254,661,infrequent,red,red,red,True,True,True,002
255,1541,infrequent,green,green,red,False,True,False,002
256,1203,infrequent,blue,blue,blue,True,True,False,002
257,564,infrequent,red,red,red,True,True,False,002
258,725,infrequent,red,red,red,True,True,True,002
259,1060,infrequent,green,green,green,True,True,False,002
260,613,infrequent,green,green,green,True,True,True,002
261,548,infrequent,green,green,green,True,True,True,002
262,653,infrequent,red,red,red,True,True,False,002
263,774,infrequent,blue,blue,blue,True,True,False,002
