trial,rt,type,color_choice,word_color,word_text,congruent,correct,repeat_stim,id
0,483,practice,green,blue,red,False,False,False,002
1,450,practice,red,red,red,True,True,False,002
2,479,practice,green,green,green,True,True,False,002
3,11688,practice,blue,blue,red,False,True,False,002
4,343,practice,red,red,red,True,True,False,002
5,598,practice,green,green,red,False,True,False,002
6,519,practice,blue,red,blue,False,False,False,002
7,536,practice,blue,blue,blue,True,True,False,002
8,626,practice,red,red,green,False,True,False,002
9,434,practice,blue,blue,blue,True,True,False,002
10,435,frequent,blue,blue,red,False,True,False,002
11,618,frequent,green,green,red,False,True,False,002
12,627,frequent,blue,blue,red,False,True,False,002
13,475,frequent,red,red,green,False,True,False,002
14,481,frequent,green,green,green,True,True,False,002
15,829,frequent,green,green,blue,False,True,False,002
16,1905,frequent,red,red,green,False,True,False,002
17,25252,frequent,blue,red,green,False,False,True,002
18,568,frequent,red,red,green,False,True,True,002
19,503,frequent,blue,blue,green,False,True,False,002
20,621,frequent,red,red,blue,False,True,False,002
21,1409,frequent,red,red,blue,False,True,True,002
22,51360,frequent,blue,blue,green,False,True,False,002
23,629,frequent,blue,blue,red,False,True,False,002
24,404,frequent,blue,blue,red,False,True,True,002
25,149594,frequent,green,blue,green,False,False,False,002
26,541,frequent,red,red,green,False,True,False,002
27,401,frequent,blue,blue,blue,True,True,False,002
28,439,frequent,blue,blue,green,False,True,False,002
29,424,frequent,blue,blue,green,False,True,True,002
30,544,frequent,green,green,blue,False,True,False,002
31,472,frequent,red,red,blue,False,True,False,002
32,526,frequent,green,green,green,True,True,False,002
33,444,frequent,blue,blue,blue,True,True,False,002
34,615,frequent,green,green,red,False,True,False,002
35,325,frequent,red,red,green,False,True,False,002
36,456,frequent,blue,green,red,False,False,False,002
37,409,frequent,green,green,blue,False,True,False,002
38,557,frequent,red,red,red,True,True,False,002
39,410,frequent,blue,blue,blue,True,True,False,002
40,596,frequent,red,red,blue,False,True,False,002
41,467,frequent,red,red,blue,False,True,True,002
42,447,frequent,blue,green,blue,False,False,False,002
43,680,frequent,blue,blue,red,False,True,False,002
44,502,frequent,green,green,blue,False,True,False,002
45,652,frequent,blue,blue,red,False,True,False,002
46,522,frequent,red,red,blue,False,True,False,002
47,502,frequent,red,red,red,True,True,False,002
48,589,frequent,blue,blue,green,False,True,False,002
49,540,frequent,red,red,blue,False,True,False,002
50,549,frequent,blue,blue,red,False,True,False,002
51,610,frequent,red,red,blue,False,True,False,002
52,361,frequent,green,green,green,True,True,False,002
53,507,frequent,red,red,green,False,True,False,002
54,511,frequent,red,red,green,False,True,True,002
55,376,frequent,red,red,blue,False,True,False,002
56,369,frequent,blue,blue,green,False,True,False,002
57,389,frequent,green,green,red,False,True,False,002
58,486,frequent,blue,blue,green,False,True,False,002
59,483,frequent,green,green,blue,False,True,False,002
60,716,frequent,green,green,blue,False,True,True,002
61,450,frequent,green,green,blue,False,True,True,002
62,409,frequent,red,red,blue,False,True,False,002
63,379,frequent,blue,blue,red,False,True,False,002
64,520,frequent,green,green,blue,False,True,False,002
65,415,frequent,green,blue,green,False,False,False,002
66,601,frequent,blue,blue,blue,True,True,False,002
67,436,frequent,blue,blue,red,False,True,False,002
68,407,frequent,red,red,blue,False,True,False,002
69,532,frequent,red,red,red,True,True,False,002
70,353,frequent,green,green,red,False,True,False,002
71,440,frequent,red,green,red,False,False,True,002
72,429,frequent,blue,blue,green,False,True,False,002
73,489,frequent,red,red,green,False,True,False,002
74,356,frequent,green,green,blue,False,True,False,002
75,571,frequent,blue,blue,green,False,True,False,002
76,592,frequent,blue,blue,green,False,True,True,002
77,575,frequent,red,red,green,False,True,False,002
78,485,frequent,green,green,blue,False,True,False,002
79,403,frequent,green,green,green,True,True,False,002
80,411,frequent,red,red,green,False,True,False,002
81,550,frequent,green,green,red,False,True,False,002
82,532,frequent,red,red,green,False,True,False,002
83,480,frequent,blue,blue,red,False,True,False,002
84,403,frequent,red,green,red,False,False,False,002
85,520,frequent,blue,blue,red,False,True,False,002
86,599,frequent,blue,blue,green,False,True,False,002
87,419,frequent,red,red,blue,False,True,False,002
88,372,frequent,green,green,red,False,True,False,002
89,951,frequent,red,red,blue,False,True,False,002
90,460,frequent,red,red,red,True,True,False,002
91,440,frequent,red,red,green,False,True,False,002
92,568,frequent,blue,blue,red,False,True,False,002
93,535,frequent,red,red,blue,False,True,False,002
94,476,frequent,green,green,green,True,True,False,002
95,530,frequent,blue,blue,red,False,True,False,002
96,523,frequent,blue,blue,blue,True,True,False,002
97,556,frequent,green,green,blue,False,True,False,002
98,600,frequent,red,red,red,True,True,False,002
99,501,frequent,red,red,red,True,True,True,002
100,364,frequent,green,green,red,False,True,False,002
101,450,frequent,green,green,green,True,True,False,002
102,415,frequent,red,red,red,True,True,False,002
103,419,frequent,red,green,red,False,False,False,002
104,368,frequent,blue,blue,blue,True,True,False,002
105,467,frequent,red,red,red,True,True,False,002
106,568,frequent,green,green,red,False,True,False,002
107,463,frequent,green,green,green,True,True,False,002
108,849,frequent,red,red,blue,False,True,False,002
109,554,frequent,green,green,red,False,True,False,002
110,374,frequent,blue,blue,green,False,True,False,002
111,533,frequent,blue,blue,green,False,True,True,002
112,608,frequent,green,green,blue,False,True,False,002
113,422,frequent,blue,blue,red,False,True,False,002
114,486,frequent,green,green,red,False,True,False,002
115,602,frequent,red,red,green,False,True,False,002
116,645,frequent,green,green,red,False,True,False,002
117,541,frequent,green,green,blue,False,True,False,002
118,569,frequent,blue,blue,blue,True,True,False,002
119,600,frequent,green,blue,green,False,False,False,002
120,613,frequent,red,red,green,False,True,False,002
121,561,frequent,red,red,green,False,True,True,002
122,440,frequent,blue,blue,blue,True,True,False,002
123,607,frequent,green,green,red,False,True,False,002
124,597,frequent,red,red,blue,False,True,False,002
125,674,frequent,green,green,blue,False,True,False,002
126,497,frequent,blue,blue,red,False,True,False,002
127,454,frequent,blue,blue,red,False,True,True,002
128,639,frequent,green,green,blue,False,True,False,002
129,554,frequent,green,green,green,True,True,False,002
130,375,infrequent,blue,blue,blue,True,True,False,002
131,419,infrequent,green,red,green,False,False,False,002
132,431,infrequent,red,red,red,True,True,False,002
133,428,infrequent,blue,blue,blue,True,True,False,002
134,478,infrequent,green,green,red,False,True,False,002
135,463,infrequent,blue,red,blue,False,False,False,002
136,405,infrequent,red,green,green,True,False,False,002
137,400,infrequent,green,green,green,True,True,True,002
138,387,infrequent,blue,blue,blue,True,True,False,002
139,394,infrequent,blue,blue,blue,True,True,True,002
140,422,infrequent,blue,blue,blue,True,True,True,002
141,750,infrequent,green,green,red,False,True,False,002
142,463,infrequent,red,red,green,False,True,False,002
143,883,infrequent,blue,blue,green,False,True,False,002
144,514,infrequent,red,red,red,True,True,False,002
145,626,infrequent,blue,blue,blue,True,True,False,002
146,1219,infrequent,red,red,red,True,True,False,002
147,486,infrequent,blue,blue,blue,True,True,False,002
148,458,infrequent,blue,blue,blue,True,True,True,002
149,480,infrequent,green,green,green,True,True,False,002
150,497,infrequent,blue,blue,blue,True,True,False,002
151,552,infrequent,green,green,green,True,True,False,002
152,550,infrequent,red,red,red,True,True,False,002
153,543,infrequent,green,green,green,True,True,False,002
154,424,infrequent,blue,blue,blue,True,True,False,002
155,1447,infrequent,red,red,blue,False,True,False,002
156,374,infrequent,green,green,green,True,True,False,002
157,417,infrequent,red,red,red,True,True,False,002
158,460,infrequent,red,red,red,True,True,True,002
159,423,infrequent,red,red,red,True,True,True,002
160,416,infrequent,red,red,red,True,True,True,002
161,358,infrequent,blue,blue,blue,True,True,False,002
162,440,infrequent,red,red,red,True,True,False,002
163,422,infrequent,red,red,red,True,True,True,002
164,475,infrequent,blue,blue,blue,True,True,False,002
165,472,infrequent,blue,blue,red,False,True,False,002
166,418,infrequent,blue,blue,red,False,True,True,002
167,465,infrequent,blue,blue,green,False,True,False,002
168,413,infrequent,blue,blue,blue,True,True,False,002
169,719,infrequent,red,red,blue,False,True,False,002
170,477,infrequent,red,red,red,True,True,False,002
171,909,infrequent,red,red,red,True,True,True,002
172,558,infrequent,green,green,green,True,True,False,002
173,454,infrequent,blue,blue,blue,True,True,False,002
174,513,infrequent,blue,blue,blue,True,True,True,002
175,495,infrequent,green,green,green,True,True,False,002
176,585,infrequent,green,green,green,True,True,True,002
177,570,infrequent,green,green,green,True,True,True,002
178,403,infrequent,green,green,green,True,True,True,002
179,504,infrequent,green,green,green,True,True,True,002
180,323,infrequent,blue,blue,blue,True,True,False,002
181,304,infrequent,blue,blue,blue,True,True,True,002
182,375,infrequent,blue,blue,blue,True,True,True,002
183,424,infrequent,green,green,green,True,True,False,002
184,351,infrequent,red,red,red,True,True,False,002
185,423,infrequent,green,blue,blue,True,False,False,002
186,478,infrequent,green,green,green,True,True,False,002
187,453,infrequent,red,red,red,True,True,False,002
188,438,infrequent,blue,blue,green,False,True,False,002
189,348,infrequent,blue,blue,blue,True,True,False,002
190,324,infrequent,green,green,green,True,True,False,002
191,648,infrequent,blue,blue,red,False,True,False,002
192,454,infrequent,green,green,green,True,True,False,002
193,333,infrequent,red,red,red,True,True,False,002
194,383,infrequent,red,red,red,True,True,True,002
195,454,infrequent,green,green,green,True,True,False,002
196,415,infrequent,blue,blue,blue,True,True,False,002
197,481,infrequent,blue,blue,red,False,True,False,002
198,724,infrequent,red,red,green,False,True,False,002
199,518,infrequent,green,green,green,True,True,False,002
200,558,infrequent,red,red,red,True,True,False,002
201,457,infrequent,blue,green,blue,False,False,False,002
202,434,infrequent,blue,blue,blue,True,True,False,002
203,441,infrequent,green,green,green,True,True,False,002
204,433,infrequent,red,red,red,True,True,False,002
205,509,infrequent,red,red,red,True,True,True,002
206,414,infrequent,red,red,red,True,True,True,002
207,517,infrequent,green,green,red,False,True,False,002
208,405,infrequent,green,green,green,True,True,False,002
209,440,infrequent,blue,blue,blue,True,True,False,002
210,494,infrequent,green,green,green,True,True,False,002
211,558,infrequent,green,green,green,True,True,True,002
212,556,infrequent,blue,blue,blue,True,True,False,002
213,388,infrequent,blue,blue,blue,True,True,True,002
214,452,infrequent,red,red,red,True,True,False,002
215,416,infrequent,red,red,blue,False,True,False,002
216,384,infrequent,red,red,red,True,True,False,002
217,456,infrequent,red,red,red,True,True,True,002
218,425,infrequent,green,green,green,True,True,False,002
219,431,infrequent,green,green,blue,False,True,False,002
220,360,infrequent,blue,blue,blue,True,True,False,002
221,289,infrequent,blue,blue,blue,True,True,True,002
222,299,infrequent,green,green,green,True,True,False,002
223,677,infrequent,blue,blue,green,False,True,False,002
224,390,infrequent,red,red,red,True,True,False,002
225,476,infrequent,green,green,green,True,True,False,002
226,516,infrequent,blue,blue,blue,True,True,False,002
227,440,infrequent,blue,blue,blue,True,True,True,002
228,575,infrequent,green,green,blue,False,True,False,002
229,509,infrequent,red,red,red,True,True,False,002
230,516,infrequent,green,green,green,True,True,False,002
231,492,infrequent,green,green,green,True,True,True,002
232,379,infrequent,red,red,red,True,True,False,002
233,363,infrequent,red,red,red,True,True,True,002
234,437,infrequent,blue,blue,blue,True,True,False,002
235,436,infrequent,red,red,red,True,True,False,002
236,444,infrequent,red,red,red,True,True,True,002
237,478,infrequent,blue,blue,blue,True,True,False,002
238,405,infrequent,green,green,green,True,True,False,002
239,451,infrequent,green,green,green,True,True,True,002
240,348,infrequent,red,red,red,True,True,False,002
241,535,infrequent,red,red,red,True,True,True,002
242,366,infrequent,red,red,red,True,True,True,002
243,429,infrequent,green,green,green,True,True,False,002
244,425,infrequent,green,green,red,False,True,False,002
245,573,infrequent,red,red,green,False,True,False,002
246,406,infrequent,green,green,green,True,True,False,002
247,621,infrequent,blue,green,blue,False,False,False,002
248,416,infrequent,blue,blue,blue,True,True,False,002
249,450,infrequent,green,green,green,True,True,False,002
