trial,rt,type,color_choice,word_color,word_text,congruent,correct,repeat_stim,id
0,1400,practice,red,red,blue,False,True,False,008
1,904,practice,blue,green,red,False,False,False,008
2,1343,practice,red,red,green,False,True,False,008
3,987,practice,blue,blue,blue,True,True,False,008
4,822,practice,green,green,green,True,True,False,008
5,1260,practice,red,red,green,False,True,False,008
6,1504,practice,blue,blue,blue,True,True,False,008
7,1305,practice,blue,blue,red,False,True,False,008
8,794,practice,blue,blue,red,False,True,True,008
9,800,practice,red,red,blue,False,True,False,008
10,1091,practice,blue,blue,green,False,True,False,008
11,1015,practice,green,green,green,True,True,False,008
12,796,practice,red,red,red,True,True,False,008
13,1533,practice,green,green,red,False,True,False,008
14,969,practice,green,green,blue,False,True,False,008
15,822,practice,blue,blue,blue,True,True,False,008
16,740,practice,blue,blue,blue,True,True,True,008
17,1017,practice,green,green,green,True,True,False,008
18,1068,practice,blue,blue,green,False,True,False,008
19,789,practice,red,red,red,True,True,False,008
20,670,practice,red,red,red,True,True,True,008
21,878,practice,blue,green,blue,False,False,False,008
22,866,practice,red,red,red,True,True,False,008
23,1285,practice,green,green,green,True,True,False,008
24,1437,infrequent,green,green,blue,False,True,False,008
25,807,infrequent,blue,blue,blue,True,True,False,008
26,1212,infrequent,red,red,blue,False,True,False,008
27,841,infrequent,blue,blue,blue,True,True,False,008
28,732,infrequent,blue,blue,blue,True,True,True,008
29,820,infrequent,blue,blue,blue,True,True,True,008
30,689,infrequent,blue,blue,blue,True,True,True,008
31,737,infrequent,blue,blue,blue,True,True,True,008
32,1006,infrequent,green,green,green,True,True,False,008
33,944,infrequent,blue,blue,blue,True,True,False,008
34,929,infrequent,green,green,green,True,True,False,008
35,859,infrequent,green,green,green,True,True,True,008
36,1084,infrequent,red,red,red,True,True,False,008
37,834,infrequent,red,red,red,True,True,True,008
38,874,infrequent,blue,blue,blue,True,True,False,008
39,1051,infrequent,red,red,red,True,True,False,008
40,977,infrequent,green,green,green,True,True,False,008
41,1063,infrequent,blue,blue,blue,True,True,False,008
42,923,infrequent,red,red,red,True,True,False,008
43,1099,infrequent,green,green,green,True,True,False,008
44,966,infrequent,blue,blue,blue,True,True,False,008
45,816,infrequent,red,red,red,True,True,False,008
46,823,infrequent,green,green,green,True,True,False,008
47,817,infrequent,red,red,red,True,True,False,008
48,796,infrequent,red,red,red,True,True,True,008
49,888,infrequent,blue,blue,blue,True,True,False,008
50,673,infrequent,blue,blue,blue,True,True,True,008
51,660,infrequent,blue,blue,blue,True,True,True,008
52,808,infrequent,red,red,red,True,True,False,008
53,1497,infrequent,blue,blue,green,False,True,False,008
54,899,infrequent,green,green,green,True,True,False,008
55,703,infrequent,green,green,green,True,True,True,008
56,996,infrequent,blue,blue,blue,True,True,False,008
57,780,infrequent,red,red,red,True,True,False,008
58,1414,infrequent,green,green,green,True,True,False,008
59,641,infrequent,green,green,green,True,True,True,008
60,608,infrequent,green,green,green,True,True,True,008
61,676,infrequent,red,red,red,True,True,False,008
62,1673,infrequent,green,green,blue,False,True,False,008
63,762,infrequent,red,red,red,True,True,False,008
64,734,infrequent,green,green,green,True,True,False,008
65,646,infrequent,green,green,green,True,True,True,008
66,826,infrequent,blue,blue,blue,True,True,False,008
67,788,infrequent,red,red,red,True,True,False,008
68,945,infrequent,blue,blue,blue,True,True,False,008
69,696,infrequent,red,red,red,True,True,False,008
70,762,infrequent,blue,blue,blue,True,True,False,008
71,1199,infrequent,green,green,blue,False,True,False,008
72,742,infrequent,red,red,red,True,True,False,008
73,1377,infrequent,red,red,blue,False,True,False,008
74,816,infrequent,green,green,green,True,True,False,008
75,1156,infrequent,blue,blue,blue,True,True,False,008
76,1200,infrequent,red,red,green,False,True,False,008
77,734,infrequent,red,red,red,True,True,False,008
78,773,infrequent,blue,blue,blue,True,True,False,008
79,1013,infrequent,green,green,red,False,True,False,008
80,604,infrequent,green,green,green,True,True,False,008
81,698,infrequent,green,green,green,True,True,True,008
82,787,infrequent,green,green,green,True,True,True,008
83,624,infrequent,red,red,red,True,True,False,008
84,1034,infrequent,red,red,blue,False,True,False,008
85,774,infrequent,blue,blue,blue,True,True,False,008
86,844,infrequent,blue,blue,green,False,True,False,008
87,935,infrequent,red,red,green,False,True,False,008
88,626,infrequent,red,red,red,True,True,False,008
89,766,infrequent,blue,blue,blue,True,True,False,008
90,736,infrequent,blue,blue,blue,True,True,True,008
91,838,infrequent,green,green,green,True,True,False,008
92,1143,infrequent,blue,blue,red,False,True,False,008
93,791,infrequent,green,green,green,True,True,False,008
94,1097,infrequent,green,green,red,False,True,False,008
95,706,infrequent,red,red,red,True,True,False,008
96,762,infrequent,green,green,green,True,True,False,008
97,811,infrequent,blue,blue,green,False,True,False,008
98,834,infrequent,red,red,red,True,True,False,008
99,770,infrequent,red,red,red,True,True,True,008
100,1304,infrequent,red,red,blue,False,True,False,008
101,808,infrequent,blue,blue,blue,True,True,False,008
102,847,infrequent,red,red,red,True,True,False,008
103,952,infrequent,green,green,green,True,True,False,008
104,1070,infrequent,green,green,red,False,True,False,008
105,688,infrequent,red,red,red,True,True,False,008
106,1266,infrequent,red,red,green,False,True,False,008
107,586,infrequent,red,red,red,True,True,False,008
108,534,infrequent,red,red,red,True,True,True,008
109,1332,infrequent,green,green,red,False,True,False,008
110,618,infrequent,green,green,green,True,True,False,008
111,607,infrequent,green,green,green,True,True,True,008
112,611,infrequent,green,green,green,True,True,True,008
113,741,infrequent,blue,blue,blue,True,True,False,008
114,717,infrequent,green,green,green,True,True,False,008
115,890,infrequent,red,red,green,False,True,False,008
116,997,infrequent,blue,blue,red,False,True,False,008
117,592,infrequent,blue,blue,blue,True,True,False,008
118,533,infrequent,blue,blue,blue,True,True,True,008
119,794,infrequent,green,green,green,True,True,False,008
120,1003,infrequent,blue,blue,red,False,True,False,008
121,1003,infrequent,green,green,blue,False,True,False,008
122,651,infrequent,green,green,green,True,True,False,008
123,605,infrequent,green,green,green,True,True,True,008
124,767,infrequent,red,red,red,True,True,False,008
125,782,infrequent,blue,blue,blue,True,True,False,008
126,679,infrequent,red,red,red,True,True,False,008
127,683,infrequent,blue,blue,blue,True,True,False,008
128,1447,infrequent,blue,blue,green,False,True,False,008
129,766,infrequent,red,red,red,True,True,False,008
130,815,infrequent,red,red,red,True,True,True,008
131,796,infrequent,red,red,red,True,True,True,008
132,755,infrequent,blue,blue,blue,True,True,False,008
133,563,infrequent,blue,blue,blue,True,True,True,008
134,741,infrequent,green,green,green,True,True,False,008
135,690,infrequent,red,red,red,True,True,False,008
136,1057,infrequent,blue,blue,red,False,True,False,008
137,777,infrequent,red,red,red,True,True,False,008
138,745,infrequent,green,green,green,True,True,False,008
139,720,infrequent,red,red,red,True,True,False,008
140,686,infrequent,green,green,green,True,True,False,008
141,637,infrequent,green,green,green,True,True,True,008
142,754,infrequent,blue,blue,blue,True,True,False,008
143,557,infrequent,blue,blue,blue,True,True,True,008
144,1140,frequent,green,green,red,False,True,False,008
145,939,frequent,blue,blue,green,False,True,False,008
146,707,frequent,green,green,red,False,True,False,008
147,669,frequent,red,red,green,False,True,False,008
148,962,frequent,blue,blue,green,False,True,False,008
149,819,frequent,green,green,blue,False,True,False,008
150,701,frequent,green,green,red,False,True,False,008
151,771,frequent,red,red,green,False,True,False,008
152,527,frequent,red,red,green,False,True,True,008
153,587,frequent,blue,blue,blue,True,True,False,008
154,835,frequent,red,red,blue,False,True,False,008
155,778,frequent,red,red,blue,False,True,True,008
156,659,frequent,red,red,blue,False,True,True,008
157,898,frequent,blue,blue,green,False,True,False,008
158,742,frequent,blue,blue,green,False,True,True,008
159,765,frequent,green,green,blue,False,True,False,008
160,1460,frequent,red,red,green,False,True,False,008
161,1086,frequent,green,green,blue,False,True,False,008
162,885,frequent,red,red,blue,False,True,False,008
163,1125,frequent,green,green,red,False,True,False,008
164,706,frequent,blue,blue,red,False,True,False,008
165,659,frequent,green,green,green,True,True,False,008
166,688,frequent,red,red,red,True,True,False,008
167,951,frequent,blue,blue,green,False,True,False,008
168,968,frequent,green,green,red,False,True,False,008
169,886,frequent,blue,blue,red,False,True,False,008
170,1089,frequent,green,green,red,False,True,False,008
171,781,frequent,green,green,blue,False,True,False,008
172,785,frequent,red,red,green,False,True,False,008
173,819,frequent,green,green,red,False,True,False,008
174,627,frequent,blue,blue,green,False,True,False,008
175,797,frequent,red,red,green,False,True,False,008
176,1243,frequent,green,green,blue,False,True,False,008
177,993,frequent,red,red,blue,False,True,False,008
178,694,frequent,green,green,green,True,True,False,008
179,816,frequent,blue,blue,red,False,True,False,008
180,773,frequent,green,green,blue,False,True,False,008
181,757,frequent,blue,blue,blue,True,True,False,008
182,626,frequent,green,green,green,True,True,False,008
183,645,frequent,green,green,green,True,True,True,008
184,621,frequent,green,green,green,True,True,True,008
185,1123,frequent,green,green,blue,False,True,False,008
186,915,frequent,red,red,blue,False,True,False,008
187,686,frequent,green,green,blue,False,True,False,008
188,743,frequent,red,red,red,True,True,False,008
189,668,frequent,green,green,green,True,True,False,008
190,772,frequent,blue,blue,red,False,True,False,008
191,577,frequent,blue,blue,red,False,True,True,008
192,869,frequent,red,red,red,True,True,False,008
193,1295,frequent,red,red,blue,False,True,False,008
194,688,frequent,red,red,blue,False,True,True,008
195,914,frequent,blue,blue,red,False,True,False,008
196,849,frequent,green,green,blue,False,True,False,008
197,888,frequent,blue,blue,red,False,True,False,008
198,799,frequent,blue,blue,blue,True,True,False,008
199,944,frequent,red,red,green,False,True,False,008
200,627,frequent,red,red,blue,False,True,False,008
201,618,frequent,red,red,blue,False,True,True,008
202,1340,frequent,green,green,red,False,True,False,008
203,594,frequent,green,green,red,False,True,True,008
204,921,frequent,blue,blue,red,False,True,False,008
205,578,frequent,blue,blue,red,False,True,True,008
206,923,frequent,green,green,blue,False,True,False,008
207,897,frequent,blue,blue,red,False,True,False,008
208,760,frequent,red,red,red,True,True,False,008
209,1001,frequent,green,green,blue,False,True,False,008
210,857,frequent,blue,blue,green,False,True,False,008
211,769,frequent,red,red,green,False,True,False,008
212,823,frequent,blue,blue,green,False,True,False,008
213,876,frequent,green,green,red,False,True,False,008
214,666,frequent,blue,blue,blue,True,True,False,008
215,642,frequent,blue,blue,blue,True,True,True,008
216,877,frequent,green,green,red,False,True,False,008
217,673,frequent,red,red,blue,False,True,False,008
218,967,frequent,blue,blue,green,False,True,False,008
219,806,frequent,red,red,green,False,True,False,008
220,892,frequent,green,green,red,False,True,False,008
221,873,frequent,red,red,red,True,True,False,008
222,1015,frequent,green,green,green,True,True,False,008
223,651,frequent,green,green,green,True,True,True,008
224,1044,frequent,blue,blue,green,False,True,False,008
225,575,frequent,blue,blue,red,False,True,False,008
226,871,frequent,green,green,red,False,True,False,008
227,791,frequent,green,green,blue,False,True,False,008
228,903,frequent,blue,blue,green,False,True,False,008
229,928,frequent,red,red,blue,False,True,False,008
230,1099,frequent,blue,blue,blue,True,True,False,008
231,952,frequent,green,red,green,False,False,False,008
232,794,frequent,green,red,green,False,False,True,008
233,1480,frequent,blue,blue,red,False,True,False,008
234,955,frequent,red,red,blue,False,True,False,008
235,905,frequent,green,green,blue,False,True,False,008
236,1574,frequent,blue,blue,green,False,True,False,008
237,566,frequent,blue,blue,red,False,True,False,008
238,545,frequent,blue,blue,green,False,True,False,008
239,669,frequent,red,red,red,True,True,False,008
240,778,frequent,green,green,blue,False,True,False,008
241,569,frequent,red,red,green,False,True,False,008
242,998,frequent,blue,blue,red,False,True,False,008
243,682,frequent,red,red,blue,False,True,False,008
244,924,frequent,green,green,red,False,True,False,008
245,805,frequent,red,red,green,False,True,False,008
246,592,frequent,red,red,green,False,True,True,008
247,700,frequent,blue,blue,blue,True,True,False,008
248,538,frequent,blue,blue,blue,True,True,True,008
249,754,frequent,blue,blue,red,False,True,False,008
250,898,frequent,red,red,blue,False,True,False,008
251,612,frequent,red,red,red,True,True,False,008
252,1023,frequent,blue,blue,red,False,True,False,008
253,979,frequent,red,red,blue,False,True,False,008
254,757,frequent,green,green,red,False,True,False,008
255,588,frequent,green,green,blue,False,True,False,008
256,861,frequent,red,red,green,False,True,False,008
257,619,frequent,red,red,green,False,True,True,008
258,1067,frequent,blue,blue,green,False,True,False,008
259,657,frequent,red,red,red,True,True,False,008
260,1078,frequent,blue,blue,green,False,True,False,008
261,863,frequent,green,green,red,False,True,False,008
262,898,frequent,blue,blue,green,False,True,False,008
263,1133,frequent,green,green,blue,False,True,False,008
