[{"rt":741,"key_press":13,"trial_type":"text","trial_index":0,"trial_index_global":0,"time_elapsed":865,"internal_chunk_id":"0-0"},{"rt":64,"key_press":13,"trial_type":"text","trial_index":0,"trial_index_global":1,"time_elapsed":2087,"internal_chunk_id":"0-0"},{"rt":-1,"stimulus":"","key_press":-1,"global_params":{"actions":[37,39],"stims":["'images/83.png'","'images/80.png'","'images/82.png'","'images/84.png'","'images/81.png'","'images/85.png'"],"fs_stim":[{"stimulus":"<img class = 'decision-stim left' src='images/83.png'><img class = 'decision-stim right' src='images/80.png'>","id":[0,1]},{"stimulus":"<img class = 'decision-stim left' src='images/80.png'><img class = 'decision-stim right' src='images/83.png'>","id":[1,0]}],"second_stage_stim":{"stimulus":["<img class = 'decision-stim left' src='images/82.png'></img><img class = 'decision-stim right' src='images/84.png'></img>","<img class = 'decision-stim left' src='images/84.png'></img><img class = 'decision-stim right' src='images/82.png'></img>","<img class = 'decision-stim left' src='images/81.png'></img><img class = 'decision-stim right' src='images/85.png'></img>","<img class = 'decision-stim left' src='images/85.png'></img><img class = 'decision-stim right' src='images/81.png'></img>"],"id":[[2,3],[3,2],[4,5],[5,4]]},"condition":"practice"},"type":"decision_global","trial_type":"single-stim","trial_index":0,"trial_index_global":2,"time_elapsed":3099,"internal_chunk_id":"0-0"},{"rt":217,"stimulus":"<img class = 'decision-stim left' src='images/80.png'><img class = 'decision-stim right' src='images/83.png'>","key_press":37,"trial_count":0,"type":"decision_first","trial_type":"single-stim","trial_index":0,"trial_index_global":3,"time_elapsed":3454,"internal_chunk_id":"0-0.3-0.0-0"},{"rt":-1,"stimulus":"<img class = 'decision-stim left selected' src='images/80.png'><img class = 'decision-stim right' src='images/83.png'>","key_press":-1,"trial_type":"single-stim","trial_index":0,"trial_index_global":4,"time_elapsed":3957,"internal_chunk_id":"0-0.3-0.0-0"},{"rt":-1,"stimulus":"","key_press":-1,"trial_type":"single-stim","trial_index":0,"trial_index_global":5,"time_elapsed":4958,"internal_chunk_id":"0-0.3-0.0-0"},{"rt":262,"stimulus":"<img class = 'decision-stim left' src='images/84.png'></img><img class = 'decision-stim right' src='images/82.png'></img>","key_press":39,"trial_count":0,"type":"decision_second","trial_type":"single-stim","trial_index":0,"trial_index_global":6,"time_elapsed":5349,"internal_chunk_id":"0-0.3-0"},{"rt":-1,"stimulus":"<img class = 'decision-stim left' src='images/84.png'><img class = 'decision-stim right selected' src='images/82.png'>","key_press":-1,"trial_type":"single-stim","trial_index":0,"trial_index_global":7,"time_elapsed":5854,"internal_chunk_id":"0-0.3-0.2-0"},{"rt":-1,"stimulus":"","key_press":-1,"trial_type":"single-stim","trial_index":0,"trial_index_global":8,"time_elapsed":6856,"internal_chunk_id":"0-0.3-0.2-0"},{"rt":-1,"stimulus":"<div style = text-align:center><p style = 'color:red;font-size:60px'>0</p></div>","key_press":-1,"trial_count":0,"type":"decision_FB","trial_type":"single-stim","trial_index":0,"trial_index_global":9,"time_elapsed":7359,"internal_chunk_id":"0-0.3-0.2-0"},{"rt":535,"stimulus":"","key_press":37,"trial_type":"single-stim","trial_index":0,"trial_index_global":10,"time_elapsed":8361,"internal_chunk_id":"0-0.3-0.2-0"},{"rt":467,"stimulus":"<img class = 'decision-stim left' src='images/83.png'><img class = 'decision-stim right' src='images/80.png'>","key_press":37,"trial_count":1,"type":"decision_first","trial_type":"single-stim","trial_index":0,"trial_index_global":11,"time_elapsed":9021,"internal_chunk_id":"0-0.3-1.0-1"},{"rt":-1,"stimulus":"<img class = 'decision-stim left selected' src='images/83.png'><img class = 'decision-stim right' src='images/80.png'>","key_press":-1,"trial_type":"single-stim","trial_index":0,"trial_index_global":12,"time_elapsed":9525,"internal_chunk_id":"0-0.3-1.0-1"},{"rt":-1,"stimulus":"","key_press":-1,"trial_type":"single-stim","trial_index":0,"trial_index_global":13,"time_elapsed":10527,"internal_chunk_id":"0-0.3-1.0-1"},{"rt":342,"stimulus":"<img class = 'decision-stim left' src='images/84.png'></img><img class = 'decision-stim right' src='images/82.png'></img>","key_press":39,"trial_count":1,"type":"decision_second","trial_type":"single-stim","trial_index":0,"trial_index_global":14,"time_elapsed":11021,"internal_chunk_id":"0-0.3-1"},{"rt":-1,"stimulus":"<img class = 'decision-stim left' src='images/84.png'><img class = 'decision-stim right selected' src='images/82.png'>","key_press":-1,"trial_type":"single-stim","trial_index":0,"trial_index_global":15,"time_elapsed":11525,"internal_chunk_id":"0-0.3-1.2-1"},{"rt":-1,"stimulus":"","key_press":-1,"trial_type":"single-stim","trial_index":0,"trial_index_global":16,"time_elapsed":12527,"internal_chunk_id":"0-0.3-1.2-1"},{"rt":-1,"stimulus":"<div style = text-align:center><p style = 'color:red;font-size:60px'>0</p></div>","key_press":-1,"trial_count":1,"type":"decision_FB","trial_type":"single-stim","trial_index":0,"trial_index_global":17,"time_elapsed":13031,"internal_chunk_id":"0-0.3-1.2-1"},{"rt":311,"stimulus":"","key_press":37,"trial_type":"single-stim","trial_index":0,"trial_index_global":18,"time_elapsed":14033,"internal_chunk_id":"0-0.3-1.2-1"},{"rt":1786,"key_press":13,"trial_type":"text","trial_index":0,"trial_index_global":19,"time_elapsed":15965,"internal_chunk_id":"0-0"},{"rt":-1,"stimulus":"","key_press":-1,"global_params":{"actions":[37,39],"stims":["'images/13.png'","'images/15.png'","'images/11.png'","'images/14.png'","'images/16.png'","'images/12.png'"],"fs_stim":[{"stimulus":"<img class = 'decision-stim left' src='images/13.png'><img class = 'decision-stim right' src='images/15.png'>","id":[0,1]},{"stimulus":"<img class = 'decision-stim left' src='images/15.png'><img class = 'decision-stim right' src='images/13.png'>","id":[1,0]}],"second_stage_stim":{"stimulus":["<img class = 'decision-stim left' src='images/11.png'></img><img class = 'decision-stim right' src='images/14.png'></img>","<img class = 'decision-stim left' src='images/14.png'></img><img class = 'decision-stim right' src='images/11.png'></img>","<img class = 'decision-stim left' src='images/16.png'></img><img class = 'decision-stim right' src='images/12.png'></img>","<img class = 'decision-stim left' src='images/12.png'></img><img class = 'decision-stim right' src='images/16.png'></img>"],"id":[[2,3],[3,2],[4,5],[5,4]]},"condition":"test"},"type":"decision_global","trial_type":"single-stim","trial_index":0,"trial_index_global":20,"time_elapsed":16973,"internal_chunk_id":"0-0"},{"rt":328,"stimulus":"<img class = 'decision-stim left' src='images/13.png'><img class = 'decision-stim right' src='images/15.png'>","key_press":37,"trial_count":0,"type":"decision_first","trial_type":"single-stim","trial_index":0,"trial_index_global":21,"time_elapsed":17421,"internal_chunk_id":"0-0.6-0.0-0"},{"rt":-1,"stimulus":"<img class = 'decision-stim left selected' src='images/13.png'><img class = 'decision-stim right' src='images/15.png'>","key_press":-1,"trial_type":"single-stim","trial_index":0,"trial_index_global":22,"time_elapsed":17925,"internal_chunk_id":"0-0.6-0.0-0"},{"rt":-1,"stimulus":"","key_press":-1,"trial_type":"single-stim","trial_index":0,"trial_index_global":23,"time_elapsed":18927,"internal_chunk_id":"0-0.6-0.0-0"},{"rt":772,"stimulus":"<img class = 'decision-stim left' src='images/14.png'></img><img class = 'decision-stim right' src='images/11.png'></img>","key_press":39,"trial_count":0,"type":"decision_second","trial_type":"single-stim","trial_index":0,"trial_index_global":24,"time_elapsed":19789,"internal_chunk_id":"0-0.6-0"},{"rt":-1,"stimulus":"<img class = 'decision-stim left' src='images/14.png'><img class = 'decision-stim right selected' src='images/11.png'>","key_press":-1,"trial_type":"single-stim","trial_index":0,"trial_index_global":25,"time_elapsed":20294,"internal_chunk_id":"0-0.6-0.2-0"},{"rt":-1,"stimulus":"","key_press":-1,"trial_type":"single-stim","trial_index":0,"trial_index_global":26,"time_elapsed":21294,"internal_chunk_id":"0-0.6-0.2-0"},{"rt":-1,"stimulus":"<div style = text-align:center><p style = 'color:red;font-size:60px'>0</p></div>","key_press":-1,"trial_count":0,"type":"decision_FB","trial_type":"single-stim","trial_index":0,"trial_index_global":27,"time_elapsed":21797,"internal_chunk_id":"0-0.6-0.2-0"},{"rt":448,"stimulus":"","key_press":37,"trial_type":"single-stim","trial_index":0,"trial_index_global":28,"time_elapsed":22799,"internal_chunk_id":"0-0.6-0.2-0"},{"rt":1693,"key_press":39,"trial_type":"text","trial_index":0,"trial_index_global":29,"time_elapsed":24621,"internal_chunk_id":"0-0"},{"rt":215,"stimulus":"<img class = 'decision-stim left' src='images/15.png'><img class = 'decision-stim right' src='images/13.png'>","key_press":39,"trial_count":1,"type":"decision_first","trial_type":"single-stim","trial_index":0,"trial_index_global":30,"time_elapsed":25973,"internal_chunk_id":"0-0.8-0.0-0"},{"rt":-1,"stimulus":"<img class = 'decision-stim left' src='images/15.png'><img class = 'decision-stim right selected' src='images/13.png'>","key_press":-1,"trial_type":"single-stim","trial_index":0,"trial_index_global":31,"time_elapsed":26476,"internal_chunk_id":"0-0.8-0.0-0"},{"rt":-1,"stimulus":"","key_press":-1,"trial_type":"single-stim","trial_index":0,"trial_index_global":32,"time_elapsed":27479,"internal_chunk_id":"0-0.8-0.0-0"},{"rt":613,"stimulus":"<img class = 'decision-stim left' src='images/14.png'></img><img class = 'decision-stim right' src='images/11.png'></img>","key_press":37,"trial_count":1,"type":"decision_second","trial_type":"single-stim","trial_index":0,"trial_index_global":33,"time_elapsed":28285,"internal_chunk_id":"0-0.8-0"},{"rt":-1,"stimulus":"<img class = 'decision-stim left selected' src='images/14.png'><img class = 'decision-stim right' src='images/11.png'>","key_press":-1,"trial_type":"single-stim","trial_index":0,"trial_index_global":34,"time_elapsed":28789,"internal_chunk_id":"0-0.8-0.2-0"},{"rt":-1,"stimulus":"","key_press":-1,"trial_type":"single-stim","trial_index":0,"trial_index_global":35,"time_elapsed":29790,"internal_chunk_id":"0-0.8-0.2-0"},{"rt":-1,"stimulus":"<div style = text-align:center><p style = 'color:red;font-size:60px'>0</p></div>","key_press":-1,"trial_count":1,"type":"decision_FB","trial_type":"single-stim","trial_index":0,"trial_index_global":36,"time_elapsed":30294,"internal_chunk_id":"0-0.8-0.2-0"},{"rt":223,"stimulus":"","key_press":37,"trial_type":"single-stim","trial_index":0,"trial_index_global":37,"time_elapsed":31296,"internal_chunk_id":"0-0.8-0.2-0"},{"rt":404,"key_press":37,"trial_type":"text","trial_index":0,"trial_index_global":38,"time_elapsed":31821,"internal_chunk_id":"0-0"},{"rt":254,"stimulus":"<img class = 'decision-stim left' src='images/15.png'><img class = 'decision-stim right' src='images/13.png'>","key_press":37,"trial_count":2,"type":"decision_first","trial_type":"single-stim","trial_index":0,"trial_index_global":39,"time_elapsed":33197,"internal_chunk_id":"0-0.10-0.0-0"},{"rt":-1,"stimulus":"<img class = 'decision-stim left selected' src='images/15.png'><img class = 'decision-stim right' src='images/13.png'>","key_press":-1,"trial_type":"single-stim","trial_index":0,"trial_index_global":40,"time_elapsed":33700,"internal_chunk_id":"0-0.10-0.0-0"},{"rt":-1,"stimulus":"","key_press":-1,"trial_type":"single-stim","trial_index":0,"trial_index_global":41,"time_elapsed":34701,"internal_chunk_id":"0-0.10-0.0-0"},{"rt":318,"stimulus":"<img class = 'decision-stim left' src='images/16.png'></img><img class = 'decision-stim right' src='images/12.png'></img>","key_press":39,"trial_count":2,"type":"decision_second","trial_type":"single-stim","trial_index":0,"trial_index_global":42,"time_elapsed":35149,"internal_chunk_id":"0-0.10-0"},{"rt":-1,"stimulus":"<img class = 'decision-stim left' src='images/16.png'><img class = 'decision-stim right selected' src='images/12.png'>","key_press":-1,"trial_type":"single-stim","trial_index":0,"trial_index_global":43,"time_elapsed":35652,"internal_chunk_id":"0-0.10-0.2-0"},{"rt":-1,"stimulus":"","key_press":-1,"trial_type":"single-stim","trial_index":0,"trial_index_global":44,"time_elapsed":36654,"internal_chunk_id":"0-0.10-0.2-0"},{"rt":-1,"stimulus":"<img class = 'decision-stim' src = 'images/gold_coin.png'></img>","key_press":-1,"trial_count":2,"type":"decision_FB","trial_type":"single-stim","trial_index":0,"trial_index_global":45,"time_elapsed":37157,"internal_chunk_id":"0-0.10-0.2-0"},{"rt":-1,"stimulus":"","key_press":-1,"trial_type":"single-stim","trial_index":0,"trial_index_global":46,"time_elapsed":38159,"internal_chunk_id":"0-0.10-0.2-0"},{"rt":276,"stimulus":"<img class = 'decision-stim left' src='images/13.png'><img class = 'decision-stim right' src='images/15.png'>","key_press":37,"trial_count":3,"type":"decision_first","trial_type":"single-stim","trial_index":0,"trial_index_global":47,"time_elapsed":38613,"internal_chunk_id":"0-0.10-1.0-1"},{"rt":-1,"stimulus":"<img class = 'decision-stim left selected' src='images/13.png'><img class = 'decision-stim right' src='images/15.png'>","key_press":-1,"trial_type":"single-stim","trial_index":0,"trial_index_global":48,"time_elapsed":39118,"internal_chunk_id":"0-0.10-1.0-1"},{"rt":-1,"stimulus":"","key_press":-1,"trial_type":"single-stim","trial_index":0,"trial_index_global":49,"time_elapsed":40119,"internal_chunk_id":"0-0.10-1.0-1"},{"rt":141,"stimulus":"<img class = 'decision-stim left' src='images/14.png'></img><img class = 'decision-stim right' src='images/11.png'></img>","key_press":39,"trial_count":3,"type":"decision_second","trial_type":"single-stim","trial_index":0,"trial_index_global":50,"time_elapsed":40445,"internal_chunk_id":"0-0.10-1"},{"rt":-1,"stimulus":"<img class = 'decision-stim left' src='images/14.png'><img class = 'decision-stim right selected' src='images/11.png'>","key_press":-1,"trial_type":"single-stim","trial_index":0,"trial_index_global":51,"time_elapsed":40949,"internal_chunk_id":"0-0.10-1.2-1"},{"rt":-1,"stimulus":"","key_press":-1,"trial_type":"single-stim","trial_index":0,"trial_index_global":52,"time_elapsed":41952,"internal_chunk_id":"0-0.10-1.2-1"},{"rt":-1,"stimulus":"<div style = text-align:center><p style = 'color:red;font-size:60px'>0</p></div>","key_press":-1,"trial_count":3,"type":"decision_FB","trial_type":"single-stim","trial_index":0,"trial_index_global":53,"time_elapsed":42456,"internal_chunk_id":"0-0.10-1.2-1"},{"rt":-1,"stimulus":"","key_press":-1,"trial_type":"single-stim","trial_index":0,"trial_index_global":54,"time_elapsed":43458,"internal_chunk_id":"0-0.10-1.2-1"},{"rt":840,"key_press":13,"trial_type":"text","trial_index":0,"trial_index_global":55,"time_elapsed":44405,"internal_chunk_id":"0-0"},{"rt":-1,"stimulus":"<p class = stroop-stim>+</p>","key_press":-1,"trial_type":"single-stim","trial_index":0,"trial_index_global":56,"time_elapsed":45608,"internal_chunk_id":"0-0.12-0"},{"rt":156,"stimulus":"<p class = stroop-stim style = \"color:red\">RED</p>","key_press":37,"type":"stroop_practice","trial_type":"single-stim","trial_index":0,"trial_index_global":57,"time_elapsed":45853,"internal_chunk_id":"0-0.12-0"},{"rt":-1,"stimulus":"<p class = stroop-stim>+</p>","key_press":-1,"trial_type":"single-stim","trial_index":0,"trial_index_global":58,"time_elapsed":47057,"internal_chunk_id":"0-0.12-1"},{"rt":99,"stimulus":"<p class = stroop-stim style = \"color:blue\">RED</p>","key_press":37,"type":"stroop_practice","trial_type":"single-stim","trial_index":0,"trial_index_global":59,"time_elapsed":47365,"internal_chunk_id":"0-0.12-1"},{"rt":-1,"stimulus":"<p class = stroop-stim>+</p>","key_press":-1,"trial_type":"single-stim","trial_index":0,"trial_index_global":60,"time_elapsed":48568,"internal_chunk_id":"0-0.12-2"},{"rt":428,"stimulus":"<p class = stroop-stim style = \"color:blue\">BLUE</p>","key_press":37,"type":"stroop_practice","trial_type":"single-stim","trial_index":0,"trial_index_global":61,"time_elapsed":49150,"internal_chunk_id":"0-0.12-2"},{"rt":-1,"stimulus":"<p class = stroop-stim>+</p>","key_press":-1,"trial_type":"single-stim","trial_index":0,"trial_index_global":62,"time_elapsed":50354,"internal_chunk_id":"0-0.12-3"},{"rt":131,"stimulus":"<p class = stroop-stim style = \"color:green\">GREEN</p>","key_press":39,"type":"stroop_practice","trial_type":"single-stim","trial_index":0,"trial_index_global":63,"time_elapsed":50605,"internal_chunk_id":"0-0.12-3"},{"rt":-1,"stimulus":"<p class = stroop-stim>+</p>","key_press":-1,"trial_type":"single-stim","trial_index":0,"trial_index_global":64,"time_elapsed":51811,"internal_chunk_id":"0-0.12-4"},{"rt":202,"stimulus":"<p class = stroop-stim style = \"color:red\">BLUE</p>","key_press":37,"type":"stroop_practice","trial_type":"single-stim","trial_index":0,"trial_index_global":65,"time_elapsed":52189,"internal_chunk_id":"0-0.12-4"},{"rt":-1,"stimulus":"<p class = stroop-stim>+</p>","key_press":-1,"trial_type":"single-stim","trial_index":0,"trial_index_global":66,"time_elapsed":53394,"internal_chunk_id":"0-0.12-5"},{"rt":114,"stimulus":"<p class = stroop-stim style = \"color:green\">RED</p>","key_press":37,"type":"stroop_practice","trial_type":"single-stim","trial_index":0,"trial_index_global":67,"time_elapsed":53669,"internal_chunk_id":"0-0.12-5"},{"rt":-1,"stimulus":"<p class = stroop-stim>+</p>","key_press":-1,"trial_type":"single-stim","trial_index":0,"trial_index_global":68,"time_elapsed":54874,"internal_chunk_id":"0-0.12-6"},{"rt":51,"stimulus":"<p class = stroop-stim style = \"color:blue\">RED</p>","key_press":39,"type":"stroop_practice","trial_type":"single-stim","trial_index":0,"trial_index_global":69,"time_elapsed":55101,"internal_chunk_id":"0-0.12-6"},{"rt":-1,"stimulus":"<p class = stroop-stim>+</p>","key_press":-1,"trial_type":"single-stim","trial_index":0,"trial_index_global":70,"time_elapsed":56306,"internal_chunk_id":"0-0.12-7"},{"rt":34,"stimulus":"<p class = stroop-stim style = \"color:blue\">BLUE</p>","key_press":37,"type":"stroop_practice","trial_type":"single-stim","trial_index":0,"trial_index_global":71,"time_elapsed":56541,"internal_chunk_id":"0-0.12-7"},{"rt":-1,"stimulus":"<p class = stroop-stim>+</p>","key_press":-1,"trial_type":"single-stim","trial_index":0,"trial_index_global":72,"time_elapsed":57746,"internal_chunk_id":"0-0.12-8"},{"rt":115,"stimulus":"<p class = stroop-stim style = \"color:red\">GREEN</p>","key_press":39,"type":"stroop_practice","trial_type":"single-stim","trial_index":0,"trial_index_global":73,"time_elapsed":58051,"internal_chunk_id":"0-0.12-8"},{"rt":-1,"stimulus":"<p class = stroop-stim>+</p>","key_press":-1,"trial_type":"single-stim","trial_index":0,"trial_index_global":74,"time_elapsed":59255,"internal_chunk_id":"0-0.12-9"},{"rt":141,"stimulus":"<p class = stroop-stim style = \"color:red\">RED</p>","key_press":37,"type":"stroop_practice","trial_type":"single-stim","trial_index":0,"trial_index_global":75,"time_elapsed":59589,"internal_chunk_id":"0-0.12-9"},{"rt":805,"key_press":13,"trial_type":"text","trial_index":0,"trial_index_global":76,"time_elapsed":61533,"internal_chunk_id":"0-0"},{"rt":-1,"stimulus":"<p class = stroop-stim>+</p>","key_press":-1,"trial_type":"single-stim","trial_index":0,"trial_index_global":77,"time_elapsed":62736,"internal_chunk_id":"0-0.14-0"},{"rt":237,"stimulus":"<p class = stroop-stim style = \"color:green\">GREEN</p>","key_press":37,"type":"stroop_infrequent","trial_type":"single-stim","trial_index":0,"trial_index_global":78,"time_elapsed":63125,"internal_chunk_id":"0-0.14-0"},{"rt":-1,"stimulus":"<p class = stroop-stim>+</p>","key_press":-1,"trial_type":"single-stim","trial_index":0,"trial_index_global":79,"time_elapsed":64329,"internal_chunk_id":"0-0.14-1"},{"rt":243,"stimulus":"<p class = stroop-stim style = \"color:red\">RED</p>","key_press":39,"type":"stroop_infrequent","trial_type":"single-stim","trial_index":0,"trial_index_global":80,"time_elapsed":64692,"internal_chunk_id":"0-0.14-1"},{"rt":-1,"stimulus":"<p class = stroop-stim>+</p>","key_press":-1,"trial_type":"single-stim","trial_index":0,"trial_index_global":81,"time_elapsed":65897,"internal_chunk_id":"0-0.14-2"},{"rt":35,"stimulus":"<p class = stroop-stim style = \"color:blue\">BLUE</p>","key_press":37,"type":"stroop_infrequent","trial_type":"single-stim","trial_index":0,"trial_index_global":82,"time_elapsed":66077,"internal_chunk_id":"0-0.14-2"},{"rt":293,"key_press":37,"trial_type":"text","trial_index":0,"trial_index_global":83,"time_elapsed":67549,"internal_chunk_id":"0-0"},{"rt":-1,"stimulus":"<p class = stroop-stim>+</p>","key_press":-1,"trial_type":"single-stim","trial_index":0,"trial_index_global":84,"time_elapsed":68751,"internal_chunk_id":"0-0.16-0"},{"rt":206,"stimulus":"<p class = stroop-stim style = \"color:green\">GREEN</p>","key_press":37,"type":"stroop_frequent","trial_type":"single-stim","trial_index":0,"trial_index_global":85,"time_elapsed":69093,"internal_chunk_id":"0-0.16-0"},{"rt":-1,"stimulus":"<p class = stroop-stim>+</p>","key_press":-1,"trial_type":"single-stim","trial_index":0,"trial_index_global":86,"time_elapsed":70298,"internal_chunk_id":"0-0.16-1"},{"rt":90,"stimulus":"<p class = stroop-stim style = \"color:red\">RED</p>","key_press":39,"type":"stroop_frequent","trial_type":"single-stim","trial_index":0,"trial_index_global":87,"time_elapsed":70541,"internal_chunk_id":"0-0.16-1"},{"rt":-1,"stimulus":"<p class = stroop-stim>+</p>","key_press":-1,"trial_type":"single-stim","trial_index":0,"trial_index_global":88,"time_elapsed":71746,"internal_chunk_id":"0-0.16-2"},{"rt":274,"stimulus":"<p class = stroop-stim style = \"color:blue\">BLUE</p>","key_press":39,"type":"stroop_frequent","trial_type":"single-stim","trial_index":0,"trial_index_global":89,"time_elapsed":72180,"internal_chunk_id":"0-0.16-2"}]