[{"rt":6077,"key_press":13,"trial_type":"text","trial_index":0,"trial_index_global":0,"time_elapsed":6173,"internal_chunk_id":"0-0"},{"rt":60903,"key_press":13,"trial_type":"text","trial_index":0,"trial_index_global":1,"time_elapsed":68219,"internal_chunk_id":"0-0"},{"rt":-1,"stimulus":"","key_press":-1,"global_params":{"actions":[37,39],"stims":["'images/81.png'","'images/82.png'","'images/83.png'","'images/80.png'","'images/84.png'","'images/85.png'"],"fs_stim":[{"stimulus":"<img class = 'decision-stim left' src='images/81.png'></img><img class = 'decision-stim right' src='images/82.png'></img>","id":[0,1]},{"stimulus":"<img class = 'decision-stim left' src='images/82.png'></img><img class = 'decision-stim right' src='images/81.png'></img>","id":[1,0]}],"second_stage_stim":{"stimulus":["<img class = 'decision-stim left' src='images/83.png'></img><img class = 'decision-stim right' src='images/80.png'></img>","<img class = 'decision-stim left' src='images/80.png'></img><img class = 'decision-stim right' src='images/83.png'></img>","<img class = 'decision-stim left' src='images/84.png'></img><img class = 'decision-stim right' src='images/85.png'></img>","<img class = 'decision-stim left' src='images/85.png'></img><img class = 'decision-stim right' src='images/84.png'></img>"],"id":[[2,3],[3,2],[4,5],[5,4]]},"condition":"practice"},"type":"decision_global","trial_type":"single-stim","trial_index":0,"trial_index_global":2,"time_elapsed":69231,"internal_chunk_id":"0-0"},{"rt":493,"stimulus":"<img class = 'decision-stim left' src='images/82.png'></img><img class = 'decision-stim right' src='images/81.png'></img>","key_press":37,"trial_count":0,"type":"decision_first","trial_type":"single-stim","trial_index":0,"trial_index_global":3,"time_elapsed":69855,"internal_chunk_id":"0-0.3-0.0-0"},{"rt":-1,"stimulus":"<img class = 'decision-stim left selected' src='images/82.png'><img class = 'decision-stim right' src='images/81.png'>","key_press":-1,"trial_type":"single-stim","trial_index":0,"trial_index_global":4,"time_elapsed":70357,"internal_chunk_id":"0-0.3-0.0-0"},{"rt":-1,"stimulus":"","key_press":-1,"trial_type":"single-stim","trial_index":0,"trial_index_global":5,"time_elapsed":71359,"internal_chunk_id":"0-0.3-0.0-0"},{"rt":953,"stimulus":"<img class = 'decision-stim left' src='images/83.png'></img><img class = 'decision-stim right' src='images/80.png'></img>","key_press":37,"trial_count":0,"type":"decision_second","trial_type":"single-stim","trial_index":0,"trial_index_global":6,"time_elapsed":72463,"internal_chunk_id":"0-0.3-0"},{"rt":-1,"stimulus":"<img class = 'decision-stim left selected' src='images/83.png'><img class = 'decision-stim right' src='images/80.png'>","key_press":-1,"trial_type":"single-stim","trial_index":0,"trial_index_global":7,"time_elapsed":72965,"internal_chunk_id":"0-0.3-0.2-0"},{"rt":-1,"stimulus":"","key_press":-1,"trial_type":"single-stim","trial_index":0,"trial_index_global":8,"time_elapsed":73966,"internal_chunk_id":"0-0.3-0.2-0"},{"rt":-1,"stimulus":"<img class = 'decision-stim' src = 'images/gold_coin.png'></img>","key_press":-1,"trial_count":0,"type":"decision_FB","trial_type":"single-stim","trial_index":0,"trial_index_global":9,"time_elapsed":74469,"internal_chunk_id":"0-0.3-0.2-0"},{"rt":-1,"stimulus":"","key_press":-1,"trial_type":"single-stim","trial_index":0,"trial_index_global":10,"time_elapsed":75470,"internal_chunk_id":"0-0.3-0.2-0"},{"rt":731,"stimulus":"<img class = 'decision-stim left' src='images/82.png'></img><img class = 'decision-stim right' src='images/81.png'></img>","key_press":37,"trial_count":1,"type":"decision_first","trial_type":"single-stim","trial_index":0,"trial_index_global":11,"time_elapsed":76301,"internal_chunk_id":"0-0.3-1.0-1"},{"rt":-1,"stimulus":"<img class = 'decision-stim left selected' src='images/82.png'><img class = 'decision-stim right' src='images/81.png'>","key_press":-1,"trial_type":"single-stim","trial_index":0,"trial_index_global":12,"time_elapsed":76802,"internal_chunk_id":"0-0.3-1.0-1"},{"rt":-1,"stimulus":"","key_press":-1,"trial_type":"single-stim","trial_index":0,"trial_index_global":13,"time_elapsed":77803,"internal_chunk_id":"0-0.3-1.0-1"},{"rt":876,"stimulus":"<img class = 'decision-stim left' src='images/85.png'></img><img class = 'decision-stim right' src='images/84.png'></img>","key_press":39,"trial_count":1,"type":"decision_second","trial_type":"single-stim","trial_index":0,"trial_index_global":14,"time_elapsed":78836,"internal_chunk_id":"0-0.3-1"},{"rt":-1,"stimulus":"<img class = 'decision-stim left' src='images/85.png'><img class = 'decision-stim right selected' src='images/84.png'>","key_press":-1,"trial_type":"single-stim","trial_index":0,"trial_index_global":15,"time_elapsed":79338,"internal_chunk_id":"0-0.3-1.2-1"},{"rt":-1,"stimulus":"","key_press":-1,"trial_type":"single-stim","trial_index":0,"trial_index_global":16,"time_elapsed":80339,"internal_chunk_id":"0-0.3-1.2-1"},{"rt":-1,"stimulus":"<img class = 'decision-stim' src = 'images/gold_coin.png'></img>","key_press":-1,"trial_count":1,"type":"decision_FB","trial_type":"single-stim","trial_index":0,"trial_index_global":17,"time_elapsed":80841,"internal_chunk_id":"0-0.3-1.2-1"},{"rt":-1,"stimulus":"","key_press":-1,"trial_type":"single-stim","trial_index":0,"trial_index_global":18,"time_elapsed":81842,"internal_chunk_id":"0-0.3-1.2-1"},{"rt":811,"stimulus":"<img class = 'decision-stim left' src='images/81.png'></img><img class = 'decision-stim right' src='images/82.png'></img>","key_press":39,"trial_count":2,"type":"decision_first","trial_type":"single-stim","trial_index":0,"trial_index_global":19,"time_elapsed":82802,"internal_chunk_id":"0-0.3-2.0-2"},{"rt":-1,"stimulus":"<img class = 'decision-stim left' src='images/81.png'><img class = 'decision-stim right selected' src='images/82.png'>","key_press":-1,"trial_type":"single-stim","trial_index":0,"trial_index_global":20,"time_elapsed":83304,"internal_chunk_id":"0-0.3-2.0-2"},{"rt":-1,"stimulus":"","key_press":-1,"trial_type":"single-stim","trial_index":0,"trial_index_global":21,"time_elapsed":84305,"internal_chunk_id":"0-0.3-2.0-2"},{"rt":870,"stimulus":"<img class = 'decision-stim left' src='images/83.png'></img><img class = 'decision-stim right' src='images/80.png'></img>","key_press":39,"trial_count":2,"type":"decision_second","trial_type":"single-stim","trial_index":0,"trial_index_global":22,"time_elapsed":85270,"internal_chunk_id":"0-0.3-2"},{"rt":-1,"stimulus":"<img class = 'decision-stim left' src='images/83.png'><img class = 'decision-stim right selected' src='images/80.png'>","key_press":-1,"trial_type":"single-stim","trial_index":0,"trial_index_global":23,"time_elapsed":85772,"internal_chunk_id":"0-0.3-2.2-2"},{"rt":-1,"stimulus":"","key_press":-1,"trial_type":"single-stim","trial_index":0,"trial_index_global":24,"time_elapsed":86774,"internal_chunk_id":"0-0.3-2.2-2"},{"rt":-1,"stimulus":"<img class = 'decision-stim' src = 'images/gold_coin.png'></img>","key_press":-1,"trial_count":2,"type":"decision_FB","trial_type":"single-stim","trial_index":0,"trial_index_global":25,"time_elapsed":87277,"internal_chunk_id":"0-0.3-2.2-2"},{"rt":-1,"stimulus":"","key_press":-1,"trial_type":"single-stim","trial_index":0,"trial_index_global":26,"time_elapsed":88278,"internal_chunk_id":"0-0.3-2.2-2"},{"rt":584,"stimulus":"<img class = 'decision-stim left' src='images/81.png'></img><img class = 'decision-stim right' src='images/82.png'></img>","key_press":39,"trial_count":3,"type":"decision_first","trial_type":"single-stim","trial_index":0,"trial_index_global":27,"time_elapsed":88984,"internal_chunk_id":"0-0.3-3.0-3"},{"rt":-1,"stimulus":"<img class = 'decision-stim left' src='images/81.png'><img class = 'decision-stim right selected' src='images/82.png'>","key_press":-1,"trial_type":"single-stim","trial_index":0,"trial_index_global":28,"time_elapsed":89486,"internal_chunk_id":"0-0.3-3.0-3"},{"rt":-1,"stimulus":"","key_press":-1,"trial_type":"single-stim","trial_index":0,"trial_index_global":29,"time_elapsed":90488,"internal_chunk_id":"0-0.3-3.0-3"},{"rt":834,"stimulus":"<img class = 'decision-stim left' src='images/85.png'></img><img class = 'decision-stim right' src='images/84.png'></img>","key_press":39,"trial_count":3,"type":"decision_second","trial_type":"single-stim","trial_index":0,"trial_index_global":30,"time_elapsed":91443,"internal_chunk_id":"0-0.3-3"},{"rt":-1,"stimulus":"<img class = 'decision-stim left' src='images/85.png'><img class = 'decision-stim right selected' src='images/84.png'>","key_press":-1,"trial_type":"single-stim","trial_index":0,"trial_index_global":31,"time_elapsed":91946,"internal_chunk_id":"0-0.3-3.2-3"},{"rt":-1,"stimulus":"","key_press":-1,"trial_type":"single-stim","trial_index":0,"trial_index_global":32,"time_elapsed":92948,"internal_chunk_id":"0-0.3-3.2-3"},{"rt":-1,"stimulus":"<img class = 'decision-stim' src = 'images/gold_coin.png'></img>","key_press":-1,"trial_count":3,"type":"decision_FB","trial_type":"single-stim","trial_index":0,"trial_index_global":33,"time_elapsed":93450,"internal_chunk_id":"0-0.3-3.2-3"},{"rt":-1,"stimulus":"","key_press":-1,"trial_type":"single-stim","trial_index":0,"trial_index_global":34,"time_elapsed":94451,"internal_chunk_id":"0-0.3-3.2-3"},{"rt":850,"stimulus":"<img class = 'decision-stim left' src='images/81.png'></img><img class = 'decision-stim right' src='images/82.png'></img>","key_press":39,"trial_count":4,"type":"decision_first","trial_type":"single-stim","trial_index":0,"trial_index_global":35,"time_elapsed":95448,"internal_chunk_id":"0-0.3-4.0-4"},{"rt":-1,"stimulus":"<img class = 'decision-stim left' src='images/81.png'><img class = 'decision-stim right selected' src='images/82.png'>","key_press":-1,"trial_type":"single-stim","trial_index":0,"trial_index_global":36,"time_elapsed":95950,"internal_chunk_id":"0-0.3-4.0-4"},{"rt":-1,"stimulus":"","key_press":-1,"trial_type":"single-stim","trial_index":0,"trial_index_global":37,"time_elapsed":96951,"internal_chunk_id":"0-0.3-4.0-4"},{"rt":730,"stimulus":"<img class = 'decision-stim left' src='images/83.png'></img><img class = 'decision-stim right' src='images/80.png'></img>","key_press":39,"trial_count":4,"type":"decision_second","trial_type":"single-stim","trial_index":0,"trial_index_global":38,"time_elapsed":97814,"internal_chunk_id":"0-0.3-4"},{"rt":-1,"stimulus":"<img class = 'decision-stim left' src='images/83.png'><img class = 'decision-stim right selected' src='images/80.png'>","key_press":-1,"trial_type":"single-stim","trial_index":0,"trial_index_global":39,"time_elapsed":98316,"internal_chunk_id":"0-0.3-4.2-4"},{"rt":-1,"stimulus":"","key_press":-1,"trial_type":"single-stim","trial_index":0,"trial_index_global":40,"time_elapsed":99317,"internal_chunk_id":"0-0.3-4.2-4"},{"rt":-1,"stimulus":"<div style = text-align:center><p style = 'color:red;font-size:60px'>0</p></div>","key_press":-1,"trial_count":4,"type":"decision_FB","trial_type":"single-stim","trial_index":0,"trial_index_global":41,"time_elapsed":99819,"internal_chunk_id":"0-0.3-4.2-4"},{"rt":-1,"stimulus":"","key_press":-1,"trial_type":"single-stim","trial_index":0,"trial_index_global":42,"time_elapsed":100820,"internal_chunk_id":"0-0.3-4.2-4"},{"rt":726,"stimulus":"<img class = 'decision-stim left' src='images/82.png'></img><img class = 'decision-stim right' src='images/81.png'></img>","key_press":37,"trial_count":5,"type":"decision_first","trial_type":"single-stim","trial_index":0,"trial_index_global":43,"time_elapsed":101621,"internal_chunk_id":"0-0.3-5.0-5"},{"rt":-1,"stimulus":"<img class = 'decision-stim left selected' src='images/82.png'><img class = 'decision-stim right' src='images/81.png'>","key_press":-1,"trial_type":"single-stim","trial_index":0,"trial_index_global":44,"time_elapsed":102124,"internal_chunk_id":"0-0.3-5.0-5"},{"rt":-1,"stimulus":"","key_press":-1,"trial_type":"single-stim","trial_index":0,"trial_index_global":45,"time_elapsed":103125,"internal_chunk_id":"0-0.3-5.0-5"},{"rt":569,"stimulus":"<img class = 'decision-stim left' src='images/80.png'></img><img class = 'decision-stim right' src='images/83.png'></img>","key_press":37,"trial_count":5,"type":"decision_second","trial_type":"single-stim","trial_index":0,"trial_index_global":46,"time_elapsed":103828,"internal_chunk_id":"0-0.3-5"},{"rt":-1,"stimulus":"<img class = 'decision-stim left selected' src='images/80.png'><img class = 'decision-stim right' src='images/83.png'>","key_press":-1,"trial_type":"single-stim","trial_index":0,"trial_index_global":47,"time_elapsed":104330,"internal_chunk_id":"0-0.3-5.2-5"},{"rt":-1,"stimulus":"","key_press":-1,"trial_type":"single-stim","trial_index":0,"trial_index_global":48,"time_elapsed":105331,"internal_chunk_id":"0-0.3-5.2-5"},{"rt":-1,"stimulus":"<img class = 'decision-stim' src = 'images/gold_coin.png'></img>","key_press":-1,"trial_count":5,"type":"decision_FB","trial_type":"single-stim","trial_index":0,"trial_index_global":49,"time_elapsed":105833,"internal_chunk_id":"0-0.3-5.2-5"},{"rt":-1,"stimulus":"","key_press":-1,"trial_type":"single-stim","trial_index":0,"trial_index_global":50,"time_elapsed":106834,"internal_chunk_id":"0-0.3-5.2-5"},{"rt":651,"stimulus":"<img class = 'decision-stim left' src='images/82.png'></img><img class = 'decision-stim right' src='images/81.png'></img>","key_press":39,"trial_count":6,"type":"decision_first","trial_type":"single-stim","trial_index":0,"trial_index_global":51,"time_elapsed":107628,"internal_chunk_id":"0-0.3-6.0-6"},{"rt":-1,"stimulus":"<img class = 'decision-stim left' src='images/82.png'><img class = 'decision-stim right selected' src='images/81.png'>","key_press":-1,"trial_type":"single-stim","trial_index":0,"trial_index_global":52,"time_elapsed":108131,"internal_chunk_id":"0-0.3-6.0-6"},{"rt":-1,"stimulus":"","key_press":-1,"trial_type":"single-stim","trial_index":0,"trial_index_global":53,"time_elapsed":109132,"internal_chunk_id":"0-0.3-6.0-6"},{"rt":1006,"stimulus":"<img class = 'decision-stim left' src='images/80.png'></img><img class = 'decision-stim right' src='images/83.png'></img>","key_press":37,"trial_count":6,"type":"decision_second","trial_type":"single-stim","trial_index":0,"trial_index_global":54,"time_elapsed":110244,"internal_chunk_id":"0-0.3-6"},{"rt":-1,"stimulus":"<img class = 'decision-stim left selected' src='images/80.png'><img class = 'decision-stim right' src='images/83.png'>","key_press":-1,"trial_type":"single-stim","trial_index":0,"trial_index_global":55,"time_elapsed":110746,"internal_chunk_id":"0-0.3-6.2-6"},{"rt":-1,"stimulus":"","key_press":-1,"trial_type":"single-stim","trial_index":0,"trial_index_global":56,"time_elapsed":111747,"internal_chunk_id":"0-0.3-6.2-6"},{"rt":-1,"stimulus":"<div style = text-align:center><p style = 'color:red;font-size:60px'>0</p></div>","key_press":-1,"trial_count":6,"type":"decision_FB","trial_type":"single-stim","trial_index":0,"trial_index_global":57,"time_elapsed":112249,"internal_chunk_id":"0-0.3-6.2-6"},{"rt":-1,"stimulus":"","key_press":-1,"trial_type":"single-stim","trial_index":0,"trial_index_global":58,"time_elapsed":113250,"internal_chunk_id":"0-0.3-6.2-6"},{"rt":616,"stimulus":"<img class = 'decision-stim left' src='images/81.png'></img><img class = 'decision-stim right' src='images/82.png'></img>","key_press":37,"trial_count":7,"type":"decision_first","trial_type":"single-stim","trial_index":0,"trial_index_global":59,"time_elapsed":113960,"internal_chunk_id":"0-0.3-7.0-7"},{"rt":-1,"stimulus":"<img class = 'decision-stim left selected' src='images/81.png'><img class = 'decision-stim right' src='images/82.png'>","key_press":-1,"trial_type":"single-stim","trial_index":0,"trial_index_global":60,"time_elapsed":114463,"internal_chunk_id":"0-0.3-7.0-7"},{"rt":-1,"stimulus":"","key_press":-1,"trial_type":"single-stim","trial_index":0,"trial_index_global":61,"time_elapsed":115464,"internal_chunk_id":"0-0.3-7.0-7"},{"rt":903,"stimulus":"<img class = 'decision-stim left' src='images/83.png'></img><img class = 'decision-stim right' src='images/80.png'></img>","key_press":39,"trial_count":7,"type":"decision_second","trial_type":"single-stim","trial_index":0,"trial_index_global":62,"time_elapsed":116510,"internal_chunk_id":"0-0.3-7"},{"rt":-1,"stimulus":"<img class = 'decision-stim left' src='images/83.png'><img class = 'decision-stim right selected' src='images/80.png'>","key_press":-1,"trial_type":"single-stim","trial_index":0,"trial_index_global":63,"time_elapsed":117012,"internal_chunk_id":"0-0.3-7.2-7"},{"rt":-1,"stimulus":"","key_press":-1,"trial_type":"single-stim","trial_index":0,"trial_index_global":64,"time_elapsed":118014,"internal_chunk_id":"0-0.3-7.2-7"},{"rt":-1,"stimulus":"<img class = 'decision-stim' src = 'images/gold_coin.png'></img>","key_press":-1,"trial_count":7,"type":"decision_FB","trial_type":"single-stim","trial_index":0,"trial_index_global":65,"time_elapsed":118517,"internal_chunk_id":"0-0.3-7.2-7"},{"rt":-1,"stimulus":"","key_press":-1,"trial_type":"single-stim","trial_index":0,"trial_index_global":66,"time_elapsed":119518,"internal_chunk_id":"0-0.3-7.2-7"},{"rt":591,"stimulus":"<img class = 'decision-stim left' src='images/82.png'></img><img class = 'decision-stim right' src='images/81.png'></img>","key_press":37,"trial_count":8,"type":"decision_first","trial_type":"single-stim","trial_index":0,"trial_index_global":67,"time_elapsed":120267,"internal_chunk_id":"0-0.3-8.0-8"},{"rt":-1,"stimulus":"<img class = 'decision-stim left selected' src='images/82.png'><img class = 'decision-stim right' src='images/81.png'>","key_press":-1,"trial_type":"single-stim","trial_index":0,"trial_index_global":68,"time_elapsed":120772,"internal_chunk_id":"0-0.3-8.0-8"},{"rt":-1,"stimulus":"","key_press":-1,"trial_type":"single-stim","trial_index":0,"trial_index_global":69,"time_elapsed":121774,"internal_chunk_id":"0-0.3-8.0-8"},{"rt":534,"stimulus":"<img class = 'decision-stim left' src='images/85.png'></img><img class = 'decision-stim right' src='images/84.png'></img>","key_press":39,"trial_count":8,"type":"decision_second","trial_type":"single-stim","trial_index":0,"trial_index_global":70,"time_elapsed":122460,"internal_chunk_id":"0-0.3-8"},{"rt":-1,"stimulus":"<img class = 'decision-stim left' src='images/85.png'><img class = 'decision-stim right selected' src='images/84.png'>","key_press":-1,"trial_type":"single-stim","trial_index":0,"trial_index_global":71,"time_elapsed":122962,"internal_chunk_id":"0-0.3-8.2-8"},{"rt":-1,"stimulus":"","key_press":-1,"trial_type":"single-stim","trial_index":0,"trial_index_global":72,"time_elapsed":123963,"internal_chunk_id":"0-0.3-8.2-8"},{"rt":-1,"stimulus":"<div style = text-align:center><p style = 'color:red;font-size:60px'>0</p></div>","key_press":-1,"trial_count":8,"type":"decision_FB","trial_type":"single-stim","trial_index":0,"trial_index_global":73,"time_elapsed":124465,"internal_chunk_id":"0-0.3-8.2-8"},{"rt":-1,"stimulus":"","key_press":-1,"trial_type":"single-stim","trial_index":0,"trial_index_global":74,"time_elapsed":125466,"internal_chunk_id":"0-0.3-8.2-8"},{"rt":441,"stimulus":"<img class = 'decision-stim left' src='images/81.png'></img><img class = 'decision-stim right' src='images/82.png'></img>","key_press":39,"trial_count":9,"type":"decision_first","trial_type":"single-stim","trial_index":0,"trial_index_global":75,"time_elapsed":126043,"internal_chunk_id":"0-0.3-9.0-9"},{"rt":-1,"stimulus":"<img class = 'decision-stim left' src='images/81.png'><img class = 'decision-stim right selected' src='images/82.png'>","key_press":-1,"trial_type":"single-stim","trial_index":0,"trial_index_global":76,"time_elapsed":126546,"internal_chunk_id":"0-0.3-9.0-9"},{"rt":-1,"stimulus":"","key_press":-1,"trial_type":"single-stim","trial_index":0,"trial_index_global":77,"time_elapsed":127547,"internal_chunk_id":"0-0.3-9.0-9"},{"rt":548,"stimulus":"<img class = 'decision-stim left' src='images/84.png'></img><img class = 'decision-stim right' src='images/85.png'></img>","key_press":39,"trial_count":9,"type":"decision_second","trial_type":"single-stim","trial_index":0,"trial_index_global":78,"time_elapsed":128241,"internal_chunk_id":"0-0.3-9"},{"rt":-1,"stimulus":"<img class = 'decision-stim left' src='images/84.png'><img class = 'decision-stim right selected' src='images/85.png'>","key_press":-1,"trial_type":"single-stim","trial_index":0,"trial_index_global":79,"time_elapsed":128744,"internal_chunk_id":"0-0.3-9.2-9"},{"rt":-1,"stimulus":"","key_press":-1,"trial_type":"single-stim","trial_index":0,"trial_index_global":80,"time_elapsed":129746,"internal_chunk_id":"0-0.3-9.2-9"},{"rt":-1,"stimulus":"<img class = 'decision-stim' src = 'images/gold_coin.png'></img>","key_press":-1,"trial_count":9,"type":"decision_FB","trial_type":"single-stim","trial_index":0,"trial_index_global":81,"time_elapsed":130249,"internal_chunk_id":"0-0.3-9.2-9"},{"rt":-1,"stimulus":"","key_press":-1,"trial_type":"single-stim","trial_index":0,"trial_index_global":82,"time_elapsed":131250,"internal_chunk_id":"0-0.3-9.2-9"},{"rt":551,"stimulus":"<img class = 'decision-stim left' src='images/82.png'></img><img class = 'decision-stim right' src='images/81.png'></img>","key_press":37,"trial_count":10,"type":"decision_first","trial_type":"single-stim","trial_index":0,"trial_index_global":83,"time_elapsed":131932,"internal_chunk_id":"0-0.3-10.0-10"},{"rt":-1,"stimulus":"<img class = 'decision-stim left selected' src='images/82.png'><img class = 'decision-stim right' src='images/81.png'>","key_press":-1,"trial_type":"single-stim","trial_index":0,"trial_index_global":84,"time_elapsed":132435,"internal_chunk_id":"0-0.3-10.0-10"},{"rt":-1,"stimulus":"","key_press":-1,"trial_type":"single-stim","trial_index":0,"trial_index_global":85,"time_elapsed":133436,"internal_chunk_id":"0-0.3-10.0-10"},{"rt":1128,"stimulus":"<img class = 'decision-stim left' src='images/80.png'></img><img class = 'decision-stim right' src='images/83.png'></img>","key_press":37,"trial_count":10,"type":"decision_second","trial_type":"single-stim","trial_index":0,"trial_index_global":86,"time_elapsed":134685,"internal_chunk_id":"0-0.3-10"},{"rt":-1,"stimulus":"<img class = 'decision-stim left selected' src='images/80.png'><img class = 'decision-stim right' src='images/83.png'>","key_press":-1,"trial_type":"single-stim","trial_index":0,"trial_index_global":87,"time_elapsed":135188,"internal_chunk_id":"0-0.3-10.2-10"},{"rt":-1,"stimulus":"","key_press":-1,"trial_type":"single-stim","trial_index":0,"trial_index_global":88,"time_elapsed":136189,"internal_chunk_id":"0-0.3-10.2-10"},{"rt":-1,"stimulus":"<div style = text-align:center><p style = 'color:red;font-size:60px'>0</p></div>","key_press":-1,"trial_count":10,"type":"decision_FB","trial_type":"single-stim","trial_index":0,"trial_index_global":89,"time_elapsed":136691,"internal_chunk_id":"0-0.3-10.2-10"},{"rt":-1,"stimulus":"","key_press":-1,"trial_type":"single-stim","trial_index":0,"trial_index_global":90,"time_elapsed":137692,"internal_chunk_id":"0-0.3-10.2-10"},{"rt":784,"stimulus":"<img class = 'decision-stim left' src='images/82.png'></img><img class = 'decision-stim right' src='images/81.png'></img>","key_press":37,"trial_count":11,"type":"decision_first","trial_type":"single-stim","trial_index":0,"trial_index_global":91,"time_elapsed":138588,"internal_chunk_id":"0-0.3-11.0-11"},{"rt":-1,"stimulus":"<img class = 'decision-stim left selected' src='images/82.png'><img class = 'decision-stim right' src='images/81.png'>","key_press":-1,"trial_type":"single-stim","trial_index":0,"trial_index_global":92,"time_elapsed":139090,"internal_chunk_id":"0-0.3-11.0-11"},{"rt":-1,"stimulus":"","key_press":-1,"trial_type":"single-stim","trial_index":0,"trial_index_global":93,"time_elapsed":140092,"internal_chunk_id":"0-0.3-11.0-11"},{"rt":522,"stimulus":"<img class = 'decision-stim left' src='images/84.png'></img><img class = 'decision-stim right' src='images/85.png'></img>","key_press":39,"trial_count":11,"type":"decision_second","trial_type":"single-stim","trial_index":0,"trial_index_global":94,"time_elapsed":140739,"internal_chunk_id":"0-0.3-11"},{"rt":-1,"stimulus":"<img class = 'decision-stim left' src='images/84.png'><img class = 'decision-stim right selected' src='images/85.png'>","key_press":-1,"trial_type":"single-stim","trial_index":0,"trial_index_global":95,"time_elapsed":141242,"internal_chunk_id":"0-0.3-11.2-11"},{"rt":-1,"stimulus":"","key_press":-1,"trial_type":"single-stim","trial_index":0,"trial_index_global":96,"time_elapsed":142243,"internal_chunk_id":"0-0.3-11.2-11"},{"rt":-1,"stimulus":"<div style = text-align:center><p style = 'color:red;font-size:60px'>0</p></div>","key_press":-1,"trial_count":11,"type":"decision_FB","trial_type":"single-stim","trial_index":0,"trial_index_global":97,"time_elapsed":142745,"internal_chunk_id":"0-0.3-11.2-11"},{"rt":-1,"stimulus":"","key_press":-1,"trial_type":"single-stim","trial_index":0,"trial_index_global":98,"time_elapsed":143746,"internal_chunk_id":"0-0.3-11.2-11"},{"rt":501,"stimulus":"<img class = 'decision-stim left' src='images/81.png'></img><img class = 'decision-stim right' src='images/82.png'></img>","key_press":37,"trial_count":12,"type":"decision_first","trial_type":"single-stim","trial_index":0,"trial_index_global":99,"time_elapsed":144360,"internal_chunk_id":"0-0.3-12.0-12"},{"rt":-1,"stimulus":"<img class = 'decision-stim left selected' src='images/81.png'><img class = 'decision-stim right' src='images/82.png'>","key_press":-1,"trial_type":"single-stim","trial_index":0,"trial_index_global":100,"time_elapsed":144863,"internal_chunk_id":"0-0.3-12.0-12"},{"rt":-1,"stimulus":"","key_press":-1,"trial_type":"single-stim","trial_index":0,"trial_index_global":101,"time_elapsed":145864,"internal_chunk_id":"0-0.3-12.0-12"},{"rt":347,"stimulus":"<img class = 'decision-stim left' src='images/83.png'></img><img class = 'decision-stim right' src='images/80.png'></img>","key_press":39,"trial_count":12,"type":"decision_second","trial_type":"single-stim","trial_index":0,"trial_index_global":102,"time_elapsed":146366,"internal_chunk_id":"0-0.3-12"},{"rt":-1,"stimulus":"<img class = 'decision-stim left' src='images/83.png'><img class = 'decision-stim right selected' src='images/80.png'>","key_press":-1,"trial_type":"single-stim","trial_index":0,"trial_index_global":103,"time_elapsed":146869,"internal_chunk_id":"0-0.3-12.2-12"},{"rt":-1,"stimulus":"","key_press":-1,"trial_type":"single-stim","trial_index":0,"trial_index_global":104,"time_elapsed":147870,"internal_chunk_id":"0-0.3-12.2-12"},{"rt":-1,"stimulus":"<div style = text-align:center><p style = 'color:red;font-size:60px'>0</p></div>","key_press":-1,"trial_count":12,"type":"decision_FB","trial_type":"single-stim","trial_index":0,"trial_index_global":105,"time_elapsed":148374,"internal_chunk_id":"0-0.3-12.2-12"},{"rt":-1,"stimulus":"","key_press":-1,"trial_type":"single-stim","trial_index":0,"trial_index_global":106,"time_elapsed":149375,"internal_chunk_id":"0-0.3-12.2-12"},{"rt":596,"stimulus":"<img class = 'decision-stim left' src='images/82.png'></img><img class = 'decision-stim right' src='images/81.png'></img>","key_press":37,"trial_count":13,"type":"decision_first","trial_type":"single-stim","trial_index":0,"trial_index_global":107,"time_elapsed":150070,"internal_chunk_id":"0-0.3-13.0-13"},{"rt":-1,"stimulus":"<img class = 'decision-stim left selected' src='images/82.png'><img class = 'decision-stim right' src='images/81.png'>","key_press":-1,"trial_type":"single-stim","trial_index":0,"trial_index_global":108,"time_elapsed":150572,"internal_chunk_id":"0-0.3-13.0-13"},{"rt":-1,"stimulus":"","key_press":-1,"trial_type":"single-stim","trial_index":0,"trial_index_global":109,"time_elapsed":151573,"internal_chunk_id":"0-0.3-13.0-13"},{"rt":426,"stimulus":"<img class = 'decision-stim left' src='images/84.png'></img><img class = 'decision-stim right' src='images/85.png'></img>","key_press":39,"trial_count":13,"type":"decision_second","trial_type":"single-stim","trial_index":0,"trial_index_global":110,"time_elapsed":152111,"internal_chunk_id":"0-0.3-13"},{"rt":-1,"stimulus":"<img class = 'decision-stim left' src='images/84.png'><img class = 'decision-stim right selected' src='images/85.png'>","key_press":-1,"trial_type":"single-stim","trial_index":0,"trial_index_global":111,"time_elapsed":152614,"internal_chunk_id":"0-0.3-13.2-13"},{"rt":-1,"stimulus":"","key_press":-1,"trial_type":"single-stim","trial_index":0,"trial_index_global":112,"time_elapsed":153615,"internal_chunk_id":"0-0.3-13.2-13"},{"rt":-1,"stimulus":"<img class = 'decision-stim' src = 'images/gold_coin.png'></img>","key_press":-1,"trial_count":13,"type":"decision_FB","trial_type":"single-stim","trial_index":0,"trial_index_global":113,"time_elapsed":154118,"internal_chunk_id":"0-0.3-13.2-13"},{"rt":-1,"stimulus":"","key_press":-1,"trial_type":"single-stim","trial_index":0,"trial_index_global":114,"time_elapsed":155119,"internal_chunk_id":"0-0.3-13.2-13"},{"rt":619,"stimulus":"<img class = 'decision-stim left' src='images/81.png'></img><img class = 'decision-stim right' src='images/82.png'></img>","key_press":39,"trial_count":14,"type":"decision_first","trial_type":"single-stim","trial_index":0,"trial_index_global":115,"time_elapsed":155831,"internal_chunk_id":"0-0.3-14.0-14"},{"rt":-1,"stimulus":"<img class = 'decision-stim left' src='images/81.png'><img class = 'decision-stim right selected' src='images/82.png'>","key_press":-1,"trial_type":"single-stim","trial_index":0,"trial_index_global":116,"time_elapsed":156334,"internal_chunk_id":"0-0.3-14.0-14"},{"rt":-1,"stimulus":"","key_press":-1,"trial_type":"single-stim","trial_index":0,"trial_index_global":117,"time_elapsed":157336,"internal_chunk_id":"0-0.3-14.0-14"},{"rt":631,"stimulus":"<img class = 'decision-stim left' src='images/83.png'></img><img class = 'decision-stim right' src='images/80.png'></img>","key_press":39,"trial_count":14,"type":"decision_second","trial_type":"single-stim","trial_index":0,"trial_index_global":118,"time_elapsed":158018,"internal_chunk_id":"0-0.3-14"},{"rt":-1,"stimulus":"<img class = 'decision-stim left' src='images/83.png'><img class = 'decision-stim right selected' src='images/80.png'>","key_press":-1,"trial_type":"single-stim","trial_index":0,"trial_index_global":119,"time_elapsed":158521,"internal_chunk_id":"0-0.3-14.2-14"},{"rt":-1,"stimulus":"","key_press":-1,"trial_type":"single-stim","trial_index":0,"trial_index_global":120,"time_elapsed":159522,"internal_chunk_id":"0-0.3-14.2-14"},{"rt":-1,"stimulus":"<div style = text-align:center><p style = 'color:red;font-size:60px'>0</p></div>","key_press":-1,"trial_count":14,"type":"decision_FB","trial_type":"single-stim","trial_index":0,"trial_index_global":121,"time_elapsed":160024,"internal_chunk_id":"0-0.3-14.2-14"},{"rt":-1,"stimulus":"","key_press":-1,"trial_type":"single-stim","trial_index":0,"trial_index_global":122,"time_elapsed":161025,"internal_chunk_id":"0-0.3-14.2-14"},{"rt":528,"stimulus":"<img class = 'decision-stim left' src='images/81.png'></img><img class = 'decision-stim right' src='images/82.png'></img>","key_press":39,"trial_count":15,"type":"decision_first","trial_type":"single-stim","trial_index":0,"trial_index_global":123,"time_elapsed":161723,"internal_chunk_id":"0-0.3-15.0-15"},{"rt":-1,"stimulus":"<img class = 'decision-stim left' src='images/81.png'><img class = 'decision-stim right selected' src='images/82.png'>","key_press":-1,"trial_type":"single-stim","trial_index":0,"trial_index_global":124,"time_elapsed":162226,"internal_chunk_id":"0-0.3-15.0-15"},{"rt":-1,"stimulus":"","key_press":-1,"trial_type":"single-stim","trial_index":0,"trial_index_global":125,"time_elapsed":163227,"internal_chunk_id":"0-0.3-15.0-15"},{"rt":1138,"stimulus":"<img class = 'decision-stim left' src='images/80.png'></img><img class = 'decision-stim right' src='images/83.png'></img>","key_press":39,"trial_count":15,"type":"decision_second","trial_type":"single-stim","trial_index":0,"trial_index_global":126,"time_elapsed":164483,"internal_chunk_id":"0-0.3-15"},{"rt":-1,"stimulus":"<img class = 'decision-stim left' src='images/80.png'><img class = 'decision-stim right selected' src='images/83.png'>","key_press":-1,"trial_type":"single-stim","trial_index":0,"trial_index_global":127,"time_elapsed":164987,"internal_chunk_id":"0-0.3-15.2-15"},{"rt":-1,"stimulus":"","key_press":-1,"trial_type":"single-stim","trial_index":0,"trial_index_global":128,"time_elapsed":165988,"internal_chunk_id":"0-0.3-15.2-15"},{"rt":-1,"stimulus":"<img class = 'decision-stim' src = 'images/gold_coin.png'></img>","key_press":-1,"trial_count":15,"type":"decision_FB","trial_type":"single-stim","trial_index":0,"trial_index_global":129,"time_elapsed":166491,"internal_chunk_id":"0-0.3-15.2-15"},{"rt":-1,"stimulus":"","key_press":-1,"trial_type":"single-stim","trial_index":0,"trial_index_global":130,"time_elapsed":167492,"internal_chunk_id":"0-0.3-15.2-15"},{"rt":651,"stimulus":"<img class = 'decision-stim left' src='images/81.png'></img><img class = 'decision-stim right' src='images/82.png'></img>","key_press":39,"trial_count":16,"type":"decision_first","trial_type":"single-stim","trial_index":0,"trial_index_global":131,"time_elapsed":168245,"internal_chunk_id":"0-0.3-16.0-16"},{"rt":-1,"stimulus":"<img class = 'decision-stim left' src='images/81.png'><img class = 'decision-stim right selected' src='images/82.png'>","key_press":-1,"trial_type":"single-stim","trial_index":0,"trial_index_global":132,"time_elapsed":168749,"internal_chunk_id":"0-0.3-16.0-16"},{"rt":-1,"stimulus":"","key_press":-1,"trial_type":"single-stim","trial_index":0,"trial_index_global":133,"time_elapsed":169753,"internal_chunk_id":"0-0.3-16.0-16"},{"rt":678,"stimulus":"<img class = 'decision-stim left' src='images/83.png'></img><img class = 'decision-stim right' src='images/80.png'></img>","key_press":37,"trial_count":16,"type":"decision_second","trial_type":"single-stim","trial_index":0,"trial_index_global":134,"time_elapsed":170569,"internal_chunk_id":"0-0.3-16"},{"rt":-1,"stimulus":"<img class = 'decision-stim left selected' src='images/83.png'><img class = 'decision-stim right' src='images/80.png'>","key_press":-1,"trial_type":"single-stim","trial_index":0,"trial_index_global":135,"time_elapsed":171072,"internal_chunk_id":"0-0.3-16.2-16"},{"rt":-1,"stimulus":"","key_press":-1,"trial_type":"single-stim","trial_index":0,"trial_index_global":136,"time_elapsed":172073,"internal_chunk_id":"0-0.3-16.2-16"},{"rt":-1,"stimulus":"<img class = 'decision-stim' src = 'images/gold_coin.png'></img>","key_press":-1,"trial_count":16,"type":"decision_FB","trial_type":"single-stim","trial_index":0,"trial_index_global":137,"time_elapsed":172577,"internal_chunk_id":"0-0.3-16.2-16"},{"rt":-1,"stimulus":"","key_press":-1,"trial_type":"single-stim","trial_index":0,"trial_index_global":138,"time_elapsed":173578,"internal_chunk_id":"0-0.3-16.2-16"},{"rt":746,"stimulus":"<img class = 'decision-stim left' src='images/82.png'></img><img class = 'decision-stim right' src='images/81.png'></img>","key_press":39,"trial_count":17,"type":"decision_first","trial_type":"single-stim","trial_index":0,"trial_index_global":139,"time_elapsed":174519,"internal_chunk_id":"0-0.3-17.0-17"},{"rt":-1,"stimulus":"<img class = 'decision-stim left' src='images/82.png'><img class = 'decision-stim right selected' src='images/81.png'>","key_press":-1,"trial_type":"single-stim","trial_index":0,"trial_index_global":140,"time_elapsed":175022,"internal_chunk_id":"0-0.3-17.0-17"},{"rt":-1,"stimulus":"","key_press":-1,"trial_type":"single-stim","trial_index":0,"trial_index_global":141,"time_elapsed":176023,"internal_chunk_id":"0-0.3-17.0-17"},{"rt":1024,"stimulus":"<img class = 'decision-stim left' src='images/83.png'></img><img class = 'decision-stim right' src='images/80.png'></img>","key_press":37,"trial_count":17,"type":"decision_second","trial_type":"single-stim","trial_index":0,"trial_index_global":142,"time_elapsed":177204,"internal_chunk_id":"0-0.3-17"},{"rt":-1,"stimulus":"<img class = 'decision-stim left selected' src='images/83.png'><img class = 'decision-stim right' src='images/80.png'>","key_press":-1,"trial_type":"single-stim","trial_index":0,"trial_index_global":143,"time_elapsed":177708,"internal_chunk_id":"0-0.3-17.2-17"},{"rt":-1,"stimulus":"","key_press":-1,"trial_type":"single-stim","trial_index":0,"trial_index_global":144,"time_elapsed":178710,"internal_chunk_id":"0-0.3-17.2-17"},{"rt":-1,"stimulus":"<div style = text-align:center><p style = 'color:red;font-size:60px'>0</p></div>","key_press":-1,"trial_count":17,"type":"decision_FB","trial_type":"single-stim","trial_index":0,"trial_index_global":145,"time_elapsed":179213,"internal_chunk_id":"0-0.3-17.2-17"},{"rt":-1,"stimulus":"","key_press":-1,"trial_type":"single-stim","trial_index":0,"trial_index_global":146,"time_elapsed":180214,"internal_chunk_id":"0-0.3-17.2-17"},{"rt":516,"stimulus":"<img class = 'decision-stim left' src='images/81.png'></img><img class = 'decision-stim right' src='images/82.png'></img>","key_press":37,"trial_count":18,"type":"decision_first","trial_type":"single-stim","trial_index":0,"trial_index_global":147,"time_elapsed":180850,"internal_chunk_id":"0-0.3-18.0-18"},{"rt":-1,"stimulus":"<img class = 'decision-stim left selected' src='images/81.png'><img class = 'decision-stim right' src='images/82.png'>","key_press":-1,"trial_type":"single-stim","trial_index":0,"trial_index_global":148,"time_elapsed":181353,"internal_chunk_id":"0-0.3-18.0-18"},{"rt":-1,"stimulus":"","key_press":-1,"trial_type":"single-stim","trial_index":0,"trial_index_global":149,"time_elapsed":182354,"internal_chunk_id":"0-0.3-18.0-18"},{"rt":659,"stimulus":"<img class = 'decision-stim left' src='images/85.png'></img><img class = 'decision-stim right' src='images/84.png'></img>","key_press":37,"trial_count":18,"type":"decision_second","trial_type":"single-stim","trial_index":0,"trial_index_global":150,"time_elapsed":183178,"internal_chunk_id":"0-0.3-18"},{"rt":-1,"stimulus":"<img class = 'decision-stim left selected' src='images/85.png'><img class = 'decision-stim right' src='images/84.png'>","key_press":-1,"trial_type":"single-stim","trial_index":0,"trial_index_global":151,"time_elapsed":183682,"internal_chunk_id":"0-0.3-18.2-18"},{"rt":-1,"stimulus":"","key_press":-1,"trial_type":"single-stim","trial_index":0,"trial_index_global":152,"time_elapsed":184683,"internal_chunk_id":"0-0.3-18.2-18"},{"rt":-1,"stimulus":"<div style = text-align:center><p style = 'color:red;font-size:60px'>0</p></div>","key_press":-1,"trial_count":18,"type":"decision_FB","trial_type":"single-stim","trial_index":0,"trial_index_global":153,"time_elapsed":185186,"internal_chunk_id":"0-0.3-18.2-18"},{"rt":-1,"stimulus":"","key_press":-1,"trial_type":"single-stim","trial_index":0,"trial_index_global":154,"time_elapsed":186187,"internal_chunk_id":"0-0.3-18.2-18"},{"rt":638,"stimulus":"<img class = 'decision-stim left' src='images/82.png'></img><img class = 'decision-stim right' src='images/81.png'></img>","key_press":39,"trial_count":19,"type":"decision_first","trial_type":"single-stim","trial_index":0,"trial_index_global":155,"time_elapsed":186929,"internal_chunk_id":"0-0.3-19.0-19"},{"rt":-1,"stimulus":"<img class = 'decision-stim left' src='images/82.png'><img class = 'decision-stim right selected' src='images/81.png'>","key_press":-1,"trial_type":"single-stim","trial_index":0,"trial_index_global":156,"time_elapsed":187433,"internal_chunk_id":"0-0.3-19.0-19"},{"rt":-1,"stimulus":"","key_press":-1,"trial_type":"single-stim","trial_index":0,"trial_index_global":157,"time_elapsed":188434,"internal_chunk_id":"0-0.3-19.0-19"},{"rt":395,"stimulus":"<img class = 'decision-stim left' src='images/84.png'></img><img class = 'decision-stim right' src='images/85.png'></img>","key_press":37,"trial_count":19,"type":"decision_second","trial_type":"single-stim","trial_index":0,"trial_index_global":158,"time_elapsed":189010,"internal_chunk_id":"0-0.3-19"},{"rt":-1,"stimulus":"<img class = 'decision-stim left selected' src='images/84.png'><img class = 'decision-stim right' src='images/85.png'>","key_press":-1,"trial_type":"single-stim","trial_index":0,"trial_index_global":159,"time_elapsed":189513,"internal_chunk_id":"0-0.3-19.2-19"},{"rt":-1,"stimulus":"","key_press":-1,"trial_type":"single-stim","trial_index":0,"trial_index_global":160,"time_elapsed":190514,"internal_chunk_id":"0-0.3-19.2-19"},{"rt":-1,"stimulus":"<img class = 'decision-stim' src = 'images/gold_coin.png'></img>","key_press":-1,"trial_count":19,"type":"decision_FB","trial_type":"single-stim","trial_index":0,"trial_index_global":161,"time_elapsed":191017,"internal_chunk_id":"0-0.3-19.2-19"},{"rt":-1,"stimulus":"","key_press":-1,"trial_type":"single-stim","trial_index":0,"trial_index_global":162,"time_elapsed":192019,"internal_chunk_id":"0-0.3-19.2-19"},{"rt":571,"stimulus":"<img class = 'decision-stim left' src='images/81.png'></img><img class = 'decision-stim right' src='images/82.png'></img>","key_press":39,"trial_count":20,"type":"decision_first","trial_type":"single-stim","trial_index":0,"trial_index_global":163,"time_elapsed":192708,"internal_chunk_id":"0-0.3-20.0-20"},{"rt":-1,"stimulus":"<img class = 'decision-stim left' src='images/81.png'><img class = 'decision-stim right selected' src='images/82.png'>","key_press":-1,"trial_type":"single-stim","trial_index":0,"trial_index_global":164,"time_elapsed":193212,"internal_chunk_id":"0-0.3-20.0-20"},{"rt":-1,"stimulus":"","key_press":-1,"trial_type":"single-stim","trial_index":0,"trial_index_global":165,"time_elapsed":194214,"internal_chunk_id":"0-0.3-20.0-20"},{"rt":357,"stimulus":"<img class = 'decision-stim left' src='images/84.png'></img><img class = 'decision-stim right' src='images/85.png'></img>","key_press":37,"trial_count":20,"type":"decision_second","trial_type":"single-stim","trial_index":0,"trial_index_global":166,"time_elapsed":194727,"internal_chunk_id":"0-0.3-20"},{"rt":-1,"stimulus":"<img class = 'decision-stim left selected' src='images/84.png'><img class = 'decision-stim right' src='images/85.png'>","key_press":-1,"trial_type":"single-stim","trial_index":0,"trial_index_global":167,"time_elapsed":195231,"internal_chunk_id":"0-0.3-20.2-20"},{"rt":-1,"stimulus":"","key_press":-1,"trial_type":"single-stim","trial_index":0,"trial_index_global":168,"time_elapsed":196233,"internal_chunk_id":"0-0.3-20.2-20"},{"rt":-1,"stimulus":"<img class = 'decision-stim' src = 'images/gold_coin.png'></img>","key_press":-1,"trial_count":20,"type":"decision_FB","trial_type":"single-stim","trial_index":0,"trial_index_global":169,"time_elapsed":196738,"internal_chunk_id":"0-0.3-20.2-20"},{"rt":-1,"stimulus":"","key_press":-1,"trial_type":"single-stim","trial_index":0,"trial_index_global":170,"time_elapsed":197740,"internal_chunk_id":"0-0.3-20.2-20"},{"rt":328,"stimulus":"<img class = 'decision-stim left' src='images/81.png'></img><img class = 'decision-stim right' src='images/82.png'></img>","key_press":39,"trial_count":21,"type":"decision_first","trial_type":"single-stim","trial_index":0,"trial_index_global":171,"time_elapsed":198214,"internal_chunk_id":"0-0.3-21.0-21"},{"rt":-1,"stimulus":"<img class = 'decision-stim left' src='images/81.png'><img class = 'decision-stim right selected' src='images/82.png'>","key_press":-1,"trial_type":"single-stim","trial_index":0,"trial_index_global":172,"time_elapsed":198719,"internal_chunk_id":"0-0.3-21.0-21"},{"rt":-1,"stimulus":"","key_press":-1,"trial_type":"single-stim","trial_index":0,"trial_index_global":173,"time_elapsed":199721,"internal_chunk_id":"0-0.3-21.0-21"},{"rt":720,"stimulus":"<img class = 'decision-stim left' src='images/83.png'></img><img class = 'decision-stim right' src='images/80.png'></img>","key_press":39,"trial_count":21,"type":"decision_second","trial_type":"single-stim","trial_index":0,"trial_index_global":174,"time_elapsed":200581,"internal_chunk_id":"0-0.3-21"},{"rt":-1,"stimulus":"<img class = 'decision-stim left' src='images/83.png'><img class = 'decision-stim right selected' src='images/80.png'>","key_press":-1,"trial_type":"single-stim","trial_index":0,"trial_index_global":175,"time_elapsed":201087,"internal_chunk_id":"0-0.3-21.2-21"},{"rt":-1,"stimulus":"","key_press":-1,"trial_type":"single-stim","trial_index":0,"trial_index_global":176,"time_elapsed":202089,"internal_chunk_id":"0-0.3-21.2-21"},{"rt":-1,"stimulus":"<img class = 'decision-stim' src = 'images/gold_coin.png'></img>","key_press":-1,"trial_count":21,"type":"decision_FB","trial_type":"single-stim","trial_index":0,"trial_index_global":177,"time_elapsed":202593,"internal_chunk_id":"0-0.3-21.2-21"},{"rt":-1,"stimulus":"","key_press":-1,"trial_type":"single-stim","trial_index":0,"trial_index_global":178,"time_elapsed":203594,"internal_chunk_id":"0-0.3-21.2-21"},{"rt":565,"stimulus":"<img class = 'decision-stim left' src='images/81.png'></img><img class = 'decision-stim right' src='images/82.png'></img>","key_press":39,"trial_count":22,"type":"decision_first","trial_type":"single-stim","trial_index":0,"trial_index_global":179,"time_elapsed":204351,"internal_chunk_id":"0-0.3-22.0-22"},{"rt":-1,"stimulus":"<img class = 'decision-stim left' src='images/81.png'><img class = 'decision-stim right selected' src='images/82.png'>","key_press":-1,"trial_type":"single-stim","trial_index":0,"trial_index_global":180,"time_elapsed":204860,"internal_chunk_id":"0-0.3-22.0-22"},{"rt":-1,"stimulus":"","key_press":-1,"trial_type":"single-stim","trial_index":0,"trial_index_global":181,"time_elapsed":205861,"internal_chunk_id":"0-0.3-22.0-22"},{"rt":1197,"stimulus":"<img class = 'decision-stim left' src='images/84.png'></img><img class = 'decision-stim right' src='images/85.png'></img>","key_press":37,"trial_count":22,"type":"decision_second","trial_type":"single-stim","trial_index":0,"trial_index_global":182,"time_elapsed":207234,"internal_chunk_id":"0-0.3-22"},{"rt":-1,"stimulus":"<img class = 'decision-stim left selected' src='images/84.png'><img class = 'decision-stim right' src='images/85.png'>","key_press":-1,"trial_type":"single-stim","trial_index":0,"trial_index_global":183,"time_elapsed":207741,"internal_chunk_id":"0-0.3-22.2-22"},{"rt":-1,"stimulus":"","key_press":-1,"trial_type":"single-stim","trial_index":0,"trial_index_global":184,"time_elapsed":208742,"internal_chunk_id":"0-0.3-22.2-22"},{"rt":-1,"stimulus":"<img class = 'decision-stim' src = 'images/gold_coin.png'></img>","key_press":-1,"trial_count":22,"type":"decision_FB","trial_type":"single-stim","trial_index":0,"trial_index_global":185,"time_elapsed":209249,"internal_chunk_id":"0-0.3-22.2-22"},{"rt":-1,"stimulus":"","key_press":-1,"trial_type":"single-stim","trial_index":0,"trial_index_global":186,"time_elapsed":210250,"internal_chunk_id":"0-0.3-22.2-22"},{"rt":305,"stimulus":"<img class = 'decision-stim left' src='images/81.png'></img><img class = 'decision-stim right' src='images/82.png'></img>","key_press":39,"trial_count":23,"type":"decision_first","trial_type":"single-stim","trial_index":0,"trial_index_global":187,"time_elapsed":210714,"internal_chunk_id":"0-0.3-23.0-23"},{"rt":-1,"stimulus":"<img class = 'decision-stim left' src='images/81.png'><img class = 'decision-stim right selected' src='images/82.png'>","key_press":-1,"trial_type":"single-stim","trial_index":0,"trial_index_global":188,"time_elapsed":211218,"internal_chunk_id":"0-0.3-23.0-23"},{"rt":-1,"stimulus":"","key_press":-1,"trial_type":"single-stim","trial_index":0,"trial_index_global":189,"time_elapsed":212220,"internal_chunk_id":"0-0.3-23.0-23"},{"rt":266,"stimulus":"<img class = 'decision-stim left' src='images/85.png'></img><img class = 'decision-stim right' src='images/84.png'></img>","key_press":39,"trial_count":23,"type":"decision_second","trial_type":"single-stim","trial_index":0,"trial_index_global":190,"time_elapsed":212634,"internal_chunk_id":"0-0.3-23"},{"rt":-1,"stimulus":"<img class = 'decision-stim left' src='images/85.png'><img class = 'decision-stim right selected' src='images/84.png'>","key_press":-1,"trial_type":"single-stim","trial_index":0,"trial_index_global":191,"time_elapsed":213137,"internal_chunk_id":"0-0.3-23.2-23"},{"rt":-1,"stimulus":"","key_press":-1,"trial_type":"single-stim","trial_index":0,"trial_index_global":192,"time_elapsed":214138,"internal_chunk_id":"0-0.3-23.2-23"},{"rt":-1,"stimulus":"<img class = 'decision-stim' src = 'images/gold_coin.png'></img>","key_press":-1,"trial_count":23,"type":"decision_FB","trial_type":"single-stim","trial_index":0,"trial_index_global":193,"time_elapsed":214642,"internal_chunk_id":"0-0.3-23.2-23"},{"rt":-1,"stimulus":"","key_press":-1,"trial_type":"single-stim","trial_index":0,"trial_index_global":194,"time_elapsed":215643,"internal_chunk_id":"0-0.3-23.2-23"},{"rt":442,"stimulus":"<img class = 'decision-stim left' src='images/82.png'></img><img class = 'decision-stim right' src='images/81.png'></img>","key_press":37,"trial_count":24,"type":"decision_first","trial_type":"single-stim","trial_index":0,"trial_index_global":195,"time_elapsed":216204,"internal_chunk_id":"0-0.3-24.0-24"},{"rt":-1,"stimulus":"<img class = 'decision-stim left selected' src='images/82.png'><img class = 'decision-stim right' src='images/81.png'>","key_press":-1,"trial_type":"single-stim","trial_index":0,"trial_index_global":196,"time_elapsed":216710,"internal_chunk_id":"0-0.3-24.0-24"},{"rt":-1,"stimulus":"","key_press":-1,"trial_type":"single-stim","trial_index":0,"trial_index_global":197,"time_elapsed":217711,"internal_chunk_id":"0-0.3-24.0-24"},{"rt":1290,"stimulus":"<img class = 'decision-stim left' src='images/80.png'></img><img class = 'decision-stim right' src='images/83.png'></img>","key_press":37,"trial_count":24,"type":"decision_second","trial_type":"single-stim","trial_index":0,"trial_index_global":198,"time_elapsed":219152,"internal_chunk_id":"0-0.3-24"},{"rt":-1,"stimulus":"<img class = 'decision-stim left selected' src='images/80.png'><img class = 'decision-stim right' src='images/83.png'>","key_press":-1,"trial_type":"single-stim","trial_index":0,"trial_index_global":199,"time_elapsed":219656,"internal_chunk_id":"0-0.3-24.2-24"},{"rt":-1,"stimulus":"","key_press":-1,"trial_type":"single-stim","trial_index":0,"trial_index_global":200,"time_elapsed":220657,"internal_chunk_id":"0-0.3-24.2-24"},{"rt":-1,"stimulus":"<img class = 'decision-stim' src = 'images/gold_coin.png'></img>","key_press":-1,"trial_count":24,"type":"decision_FB","trial_type":"single-stim","trial_index":0,"trial_index_global":201,"time_elapsed":221161,"internal_chunk_id":"0-0.3-24.2-24"},{"rt":-1,"stimulus":"","key_press":-1,"trial_type":"single-stim","trial_index":0,"trial_index_global":202,"time_elapsed":222162,"internal_chunk_id":"0-0.3-24.2-24"},{"rt":502,"stimulus":"<img class = 'decision-stim left' src='images/81.png'></img><img class = 'decision-stim right' src='images/82.png'></img>","key_press":39,"trial_count":25,"type":"decision_first","trial_type":"single-stim","trial_index":0,"trial_index_global":203,"time_elapsed":222825,"internal_chunk_id":"0-0.3-25.0-25"},{"rt":-1,"stimulus":"<img class = 'decision-stim left' src='images/81.png'><img class = 'decision-stim right selected' src='images/82.png'>","key_press":-1,"trial_type":"single-stim","trial_index":0,"trial_index_global":204,"time_elapsed":223330,"internal_chunk_id":"0-0.3-25.0-25"},{"rt":-1,"stimulus":"","key_press":-1,"trial_type":"single-stim","trial_index":0,"trial_index_global":205,"time_elapsed":224331,"internal_chunk_id":"0-0.3-25.0-25"},{"rt":586,"stimulus":"<img class = 'decision-stim left' src='images/80.png'></img><img class = 'decision-stim right' src='images/83.png'></img>","key_press":37,"trial_count":25,"type":"decision_second","trial_type":"single-stim","trial_index":0,"trial_index_global":206,"time_elapsed":225072,"internal_chunk_id":"0-0.3-25"},{"rt":-1,"stimulus":"<img class = 'decision-stim left selected' src='images/80.png'><img class = 'decision-stim right' src='images/83.png'>","key_press":-1,"trial_type":"single-stim","trial_index":0,"trial_index_global":207,"time_elapsed":225578,"internal_chunk_id":"0-0.3-25.2-25"},{"rt":-1,"stimulus":"","key_press":-1,"trial_type":"single-stim","trial_index":0,"trial_index_global":208,"time_elapsed":226580,"internal_chunk_id":"0-0.3-25.2-25"},{"rt":-1,"stimulus":"<img class = 'decision-stim' src = 'images/gold_coin.png'></img>","key_press":-1,"trial_count":25,"type":"decision_FB","trial_type":"single-stim","trial_index":0,"trial_index_global":209,"time_elapsed":227085,"internal_chunk_id":"0-0.3-25.2-25"},{"rt":-1,"stimulus":"","key_press":-1,"trial_type":"single-stim","trial_index":0,"trial_index_global":210,"time_elapsed":228086,"internal_chunk_id":"0-0.3-25.2-25"},{"rt":262,"stimulus":"<img class = 'decision-stim left' src='images/82.png'></img><img class = 'decision-stim right' src='images/81.png'></img>","key_press":39,"trial_count":26,"type":"decision_first","trial_type":"single-stim","trial_index":0,"trial_index_global":211,"time_elapsed":228511,"internal_chunk_id":"0-0.3-26.0-26"},{"rt":-1,"stimulus":"<img class = 'decision-stim left' src='images/82.png'><img class = 'decision-stim right selected' src='images/81.png'>","key_press":-1,"trial_type":"single-stim","trial_index":0,"trial_index_global":212,"time_elapsed":229014,"internal_chunk_id":"0-0.3-26.0-26"},{"rt":-1,"stimulus":"","key_press":-1,"trial_type":"single-stim","trial_index":0,"trial_index_global":213,"time_elapsed":230015,"internal_chunk_id":"0-0.3-26.0-26"},{"rt":292,"stimulus":"<img class = 'decision-stim left' src='images/85.png'></img><img class = 'decision-stim right' src='images/84.png'></img>","key_press":39,"trial_count":26,"type":"decision_second","trial_type":"single-stim","trial_index":0,"trial_index_global":214,"time_elapsed":230470,"internal_chunk_id":"0-0.3-26"},{"rt":-1,"stimulus":"<img class = 'decision-stim left' src='images/85.png'><img class = 'decision-stim right selected' src='images/84.png'>","key_press":-1,"trial_type":"single-stim","trial_index":0,"trial_index_global":215,"time_elapsed":230974,"internal_chunk_id":"0-0.3-26.2-26"},{"rt":-1,"stimulus":"","key_press":-1,"trial_type":"single-stim","trial_index":0,"trial_index_global":216,"time_elapsed":231975,"internal_chunk_id":"0-0.3-26.2-26"},{"rt":-1,"stimulus":"<img class = 'decision-stim' src = 'images/gold_coin.png'></img>","key_press":-1,"trial_count":26,"type":"decision_FB","trial_type":"single-stim","trial_index":0,"trial_index_global":217,"time_elapsed":232480,"internal_chunk_id":"0-0.3-26.2-26"},{"rt":-1,"stimulus":"","key_press":-1,"trial_type":"single-stim","trial_index":0,"trial_index_global":218,"time_elapsed":233481,"internal_chunk_id":"0-0.3-26.2-26"},{"rt":293,"stimulus":"<img class = 'decision-stim left' src='images/81.png'></img><img class = 'decision-stim right' src='images/82.png'></img>","key_press":39,"trial_count":27,"type":"decision_first","trial_type":"single-stim","trial_index":0,"trial_index_global":219,"time_elapsed":233945,"internal_chunk_id":"0-0.3-27.0-27"},{"rt":-1,"stimulus":"<img class = 'decision-stim left' src='images/81.png'><img class = 'decision-stim right selected' src='images/82.png'>","key_press":-1,"trial_type":"single-stim","trial_index":0,"trial_index_global":220,"time_elapsed":234449,"internal_chunk_id":"0-0.3-27.0-27"},{"rt":-1,"stimulus":"","key_press":-1,"trial_type":"single-stim","trial_index":0,"trial_index_global":221,"time_elapsed":235450,"internal_chunk_id":"0-0.3-27.0-27"},{"rt":297,"stimulus":"<img class = 'decision-stim left' src='images/85.png'></img><img class = 'decision-stim right' src='images/84.png'></img>","key_press":37,"trial_count":27,"type":"decision_second","trial_type":"single-stim","trial_index":0,"trial_index_global":222,"time_elapsed":235920,"internal_chunk_id":"0-0.3-27"},{"rt":-1,"stimulus":"<img class = 'decision-stim left selected' src='images/85.png'><img class = 'decision-stim right' src='images/84.png'>","key_press":-1,"trial_type":"single-stim","trial_index":0,"trial_index_global":223,"time_elapsed":236425,"internal_chunk_id":"0-0.3-27.2-27"},{"rt":-1,"stimulus":"","key_press":-1,"trial_type":"single-stim","trial_index":0,"trial_index_global":224,"time_elapsed":237426,"internal_chunk_id":"0-0.3-27.2-27"},{"rt":-1,"stimulus":"<div style = text-align:center><p style = 'color:red;font-size:60px'>0</p></div>","key_press":-1,"trial_count":27,"type":"decision_FB","trial_type":"single-stim","trial_index":0,"trial_index_global":225,"time_elapsed":237930,"internal_chunk_id":"0-0.3-27.2-27"},{"rt":-1,"stimulus":"","key_press":-1,"trial_type":"single-stim","trial_index":0,"trial_index_global":226,"time_elapsed":238931,"internal_chunk_id":"0-0.3-27.2-27"},{"rt":212,"stimulus":"<img class = 'decision-stim left' src='images/81.png'></img><img class = 'decision-stim right' src='images/82.png'></img>","key_press":39,"trial_count":28,"type":"decision_first","trial_type":"single-stim","trial_index":0,"trial_index_global":227,"time_elapsed":239327,"internal_chunk_id":"0-0.3-28.0-28"},{"rt":-1,"stimulus":"<img class = 'decision-stim left' src='images/81.png'><img class = 'decision-stim right selected' src='images/82.png'>","key_press":-1,"trial_type":"single-stim","trial_index":0,"trial_index_global":228,"time_elapsed":239831,"internal_chunk_id":"0-0.3-28.0-28"},{"rt":-1,"stimulus":"","key_press":-1,"trial_type":"single-stim","trial_index":0,"trial_index_global":229,"time_elapsed":240832,"internal_chunk_id":"0-0.3-28.0-28"},{"rt":325,"stimulus":"<img class = 'decision-stim left' src='images/84.png'></img><img class = 'decision-stim right' src='images/85.png'></img>","key_press":39,"trial_count":28,"type":"decision_second","trial_type":"single-stim","trial_index":0,"trial_index_global":230,"time_elapsed":241316,"internal_chunk_id":"0-0.3-28"},{"rt":-1,"stimulus":"<img class = 'decision-stim left' src='images/84.png'><img class = 'decision-stim right selected' src='images/85.png'>","key_press":-1,"trial_type":"single-stim","trial_index":0,"trial_index_global":231,"time_elapsed":241822,"internal_chunk_id":"0-0.3-28.2-28"},{"rt":-1,"stimulus":"","key_press":-1,"trial_type":"single-stim","trial_index":0,"trial_index_global":232,"time_elapsed":242823,"internal_chunk_id":"0-0.3-28.2-28"},{"rt":-1,"stimulus":"<img class = 'decision-stim' src = 'images/gold_coin.png'></img>","key_press":-1,"trial_count":28,"type":"decision_FB","trial_type":"single-stim","trial_index":0,"trial_index_global":233,"time_elapsed":243327,"internal_chunk_id":"0-0.3-28.2-28"},{"rt":-1,"stimulus":"","key_press":-1,"trial_type":"single-stim","trial_index":0,"trial_index_global":234,"time_elapsed":244329,"internal_chunk_id":"0-0.3-28.2-28"},{"rt":285,"stimulus":"<img class = 'decision-stim left' src='images/82.png'></img><img class = 'decision-stim right' src='images/81.png'></img>","key_press":39,"trial_count":29,"type":"decision_first","trial_type":"single-stim","trial_index":0,"trial_index_global":235,"time_elapsed":244783,"internal_chunk_id":"0-0.3-29.0-29"},{"rt":-1,"stimulus":"<img class = 'decision-stim left' src='images/82.png'><img class = 'decision-stim right selected' src='images/81.png'>","key_press":-1,"trial_type":"single-stim","trial_index":0,"trial_index_global":236,"time_elapsed":245287,"internal_chunk_id":"0-0.3-29.0-29"},{"rt":-1,"stimulus":"","key_press":-1,"trial_type":"single-stim","trial_index":0,"trial_index_global":237,"time_elapsed":246288,"internal_chunk_id":"0-0.3-29.0-29"},{"rt":429,"stimulus":"<img class = 'decision-stim left' src='images/84.png'></img><img class = 'decision-stim right' src='images/85.png'></img>","key_press":37,"trial_count":29,"type":"decision_second","trial_type":"single-stim","trial_index":0,"trial_index_global":238,"time_elapsed":246843,"internal_chunk_id":"0-0.3-29"},{"rt":-1,"stimulus":"<img class = 'decision-stim left selected' src='images/84.png'><img class = 'decision-stim right' src='images/85.png'>","key_press":-1,"trial_type":"single-stim","trial_index":0,"trial_index_global":239,"time_elapsed":247349,"internal_chunk_id":"0-0.3-29.2-29"},{"rt":-1,"stimulus":"","key_press":-1,"trial_type":"single-stim","trial_index":0,"trial_index_global":240,"time_elapsed":248350,"internal_chunk_id":"0-0.3-29.2-29"},{"rt":-1,"stimulus":"<div style = text-align:center><p style = 'color:red;font-size:60px'>0</p></div>","key_press":-1,"trial_count":29,"type":"decision_FB","trial_type":"single-stim","trial_index":0,"trial_index_global":241,"time_elapsed":248854,"internal_chunk_id":"0-0.3-29.2-29"},{"rt":-1,"stimulus":"","key_press":-1,"trial_type":"single-stim","trial_index":0,"trial_index_global":242,"time_elapsed":249855,"internal_chunk_id":"0-0.3-29.2-29"},{"rt":327,"stimulus":"<img class = 'decision-stim left' src='images/81.png'></img><img class = 'decision-stim right' src='images/82.png'></img>","key_press":37,"trial_count":30,"type":"decision_first","trial_type":"single-stim","trial_index":0,"trial_index_global":243,"time_elapsed":250334,"internal_chunk_id":"0-0.3-30.0-30"},{"rt":-1,"stimulus":"<img class = 'decision-stim left selected' src='images/81.png'><img class = 'decision-stim right' src='images/82.png'>","key_press":-1,"trial_type":"single-stim","trial_index":0,"trial_index_global":244,"time_elapsed":250838,"internal_chunk_id":"0-0.3-30.0-30"},{"rt":-1,"stimulus":"","key_press":-1,"trial_type":"single-stim","trial_index":0,"trial_index_global":245,"time_elapsed":251839,"internal_chunk_id":"0-0.3-30.0-30"},{"rt":411,"stimulus":"<img class = 'decision-stim left' src='images/83.png'></img><img class = 'decision-stim right' src='images/80.png'></img>","key_press":39,"trial_count":30,"type":"decision_second","trial_type":"single-stim","trial_index":0,"trial_index_global":246,"time_elapsed":252416,"internal_chunk_id":"0-0.3-30"},{"rt":-1,"stimulus":"<img class = 'decision-stim left' src='images/83.png'><img class = 'decision-stim right selected' src='images/80.png'>","key_press":-1,"trial_type":"single-stim","trial_index":0,"trial_index_global":247,"time_elapsed":252920,"internal_chunk_id":"0-0.3-30.2-30"},{"rt":-1,"stimulus":"","key_press":-1,"trial_type":"single-stim","trial_index":0,"trial_index_global":248,"time_elapsed":253921,"internal_chunk_id":"0-0.3-30.2-30"},{"rt":-1,"stimulus":"<img class = 'decision-stim' src = 'images/gold_coin.png'></img>","key_press":-1,"trial_count":30,"type":"decision_FB","trial_type":"single-stim","trial_index":0,"trial_index_global":249,"time_elapsed":254425,"internal_chunk_id":"0-0.3-30.2-30"},{"rt":-1,"stimulus":"","key_press":-1,"trial_type":"single-stim","trial_index":0,"trial_index_global":250,"time_elapsed":255426,"internal_chunk_id":"0-0.3-30.2-30"},{"rt":299,"stimulus":"<img class = 'decision-stim left' src='images/82.png'></img><img class = 'decision-stim right' src='images/81.png'></img>","key_press":37,"trial_count":31,"type":"decision_first","trial_type":"single-stim","trial_index":0,"trial_index_global":251,"time_elapsed":255884,"internal_chunk_id":"0-0.3-31.0-31"},{"rt":-1,"stimulus":"<img class = 'decision-stim left selected' src='images/82.png'><img class = 'decision-stim right' src='images/81.png'>","key_press":-1,"trial_type":"single-stim","trial_index":0,"trial_index_global":252,"time_elapsed":256389,"internal_chunk_id":"0-0.3-31.0-31"},{"rt":-1,"stimulus":"","key_press":-1,"trial_type":"single-stim","trial_index":0,"trial_index_global":253,"time_elapsed":257390,"internal_chunk_id":"0-0.3-31.0-31"},{"rt":326,"stimulus":"<img class = 'decision-stim left' src='images/85.png'></img><img class = 'decision-stim right' src='images/84.png'></img>","key_press":39,"trial_count":31,"type":"decision_second","trial_type":"single-stim","trial_index":0,"trial_index_global":254,"time_elapsed":257877,"internal_chunk_id":"0-0.3-31"},{"rt":-1,"stimulus":"<img class = 'decision-stim left' src='images/85.png'><img class = 'decision-stim right selected' src='images/84.png'>","key_press":-1,"trial_type":"single-stim","trial_index":0,"trial_index_global":255,"time_elapsed":258382,"internal_chunk_id":"0-0.3-31.2-31"},{"rt":-1,"stimulus":"","key_press":-1,"trial_type":"single-stim","trial_index":0,"trial_index_global":256,"time_elapsed":259383,"internal_chunk_id":"0-0.3-31.2-31"},{"rt":-1,"stimulus":"<img class = 'decision-stim' src = 'images/gold_coin.png'></img>","key_press":-1,"trial_count":31,"type":"decision_FB","trial_type":"single-stim","trial_index":0,"trial_index_global":257,"time_elapsed":259888,"internal_chunk_id":"0-0.3-31.2-31"},{"rt":-1,"stimulus":"","key_press":-1,"trial_type":"single-stim","trial_index":0,"trial_index_global":258,"time_elapsed":260889,"internal_chunk_id":"0-0.3-31.2-31"},{"rt":-1,"stimulus":"<img class = 'decision-stim left' src='images/81.png'></img><img class = 'decision-stim right' src='images/82.png'></img>","key_press":-1,"trial_count":32,"type":"decision_first","trial_type":"single-stim","trial_index":0,"trial_index_global":259,"time_elapsed":262894,"internal_chunk_id":"0-0.3-32.0-32"},{"rt":-1,"key_press":-1,"trial_type":"single-stim","trial_index":0,"trial_index_global":260,"time_elapsed":263398,"internal_chunk_id":"0-0.3-32.0-32"},{"rt":231,"stimulus":"","key_press":73,"trial_type":"single-stim","trial_index":0,"trial_index_global":261,"time_elapsed":264400,"internal_chunk_id":"0-0.3-32.0-32"},{"rt":-1,"stimulus":"<div style = text-align:center><p style = font-size:30px>Please respond faster </p></div>","key_press":-1,"trial_count":32,"type":"decision_second","trial_type":"single-stim","trial_index":0,"trial_index_global":262,"time_elapsed":266404,"internal_chunk_id":"0-0.3-32"},{"rt":515,"stimulus":"","key_press":73,"trial_type":"single-stim","trial_index":0,"trial_index_global":263,"time_elapsed":267405,"internal_chunk_id":"0-0.3-32.3-32"},{"rt":-1,"stimulus":"<img class = 'decision-stim left' src='images/82.png'></img><img class = 'decision-stim right' src='images/81.png'></img>","key_press":-1,"trial_count":33,"type":"decision_first","trial_type":"single-stim","trial_index":0,"trial_index_global":264,"time_elapsed":269409,"internal_chunk_id":"0-0.3-33.0-33"},{"rt":-1,"key_press":-1,"trial_type":"single-stim","trial_index":0,"trial_index_global":265,"time_elapsed":269913,"internal_chunk_id":"0-0.3-33.0-33"},{"rt":-1,"stimulus":"","key_press":-1,"trial_type":"single-stim","trial_index":0,"trial_index_global":266,"time_elapsed":270914,"internal_chunk_id":"0-0.3-33.0-33"},{"rt":-1,"stimulus":"<div style = text-align:center><p style = font-size:30px>Please respond faster </p></div>","key_press":-1,"trial_count":33,"type":"decision_second","trial_type":"single-stim","trial_index":0,"trial_index_global":267,"time_elapsed":272918,"internal_chunk_id":"0-0.3-33"},{"rt":-1,"stimulus":"","key_press":-1,"trial_type":"single-stim","trial_index":0,"trial_index_global":268,"time_elapsed":273919,"internal_chunk_id":"0-0.3-33.3-33"},{"rt":236,"stimulus":"<img class = 'decision-stim left' src='images/82.png'></img><img class = 'decision-stim right' src='images/81.png'></img>","key_press":39,"trial_count":34,"type":"decision_first","trial_type":"single-stim","trial_index":0,"trial_index_global":269,"time_elapsed":274294,"internal_chunk_id":"0-0.3-34.0-34"},{"rt":-1,"stimulus":"<img class = 'decision-stim left' src='images/82.png'><img class = 'decision-stim right selected' src='images/81.png'>","key_press":-1,"trial_type":"single-stim","trial_index":0,"trial_index_global":270,"time_elapsed":274799,"internal_chunk_id":"0-0.3-34.0-34"},{"rt":-1,"stimulus":"","key_press":-1,"trial_type":"single-stim","trial_index":0,"trial_index_global":271,"time_elapsed":275800,"internal_chunk_id":"0-0.3-34.0-34"},{"rt":219,"stimulus":"<img class = 'decision-stim left' src='images/80.png'></img><img class = 'decision-stim right' src='images/83.png'></img>","key_press":37,"trial_count":34,"type":"decision_second","trial_type":"single-stim","trial_index":0,"trial_index_global":272,"time_elapsed":276163,"internal_chunk_id":"0-0.3-34"},{"rt":-1,"stimulus":"<img class = 'decision-stim left selected' src='images/80.png'><img class = 'decision-stim right' src='images/83.png'>","key_press":-1,"trial_type":"single-stim","trial_index":0,"trial_index_global":273,"time_elapsed":276667,"internal_chunk_id":"0-0.3-34.2-34"},{"rt":-1,"stimulus":"","key_press":-1,"trial_type":"single-stim","trial_index":0,"trial_index_global":274,"time_elapsed":277668,"internal_chunk_id":"0-0.3-34.2-34"},{"rt":-1,"stimulus":"<img class = 'decision-stim' src = 'images/gold_coin.png'></img>","key_press":-1,"trial_count":34,"type":"decision_FB","trial_type":"single-stim","trial_index":0,"trial_index_global":275,"time_elapsed":278172,"internal_chunk_id":"0-0.3-34.2-34"},{"rt":-1,"stimulus":"","key_press":-1,"trial_type":"single-stim","trial_index":0,"trial_index_global":276,"time_elapsed":279174,"internal_chunk_id":"0-0.3-34.2-34"},{"rt":184,"stimulus":"<img class = 'decision-stim left' src='images/82.png'></img><img class = 'decision-stim right' src='images/81.png'></img>","key_press":39,"trial_count":35,"type":"decision_first","trial_type":"single-stim","trial_index":0,"trial_index_global":277,"time_elapsed":279561,"internal_chunk_id":"0-0.3-35.0-35"},{"rt":-1,"stimulus":"<img class = 'decision-stim left' src='images/82.png'><img class = 'decision-stim right selected' src='images/81.png'>","key_press":-1,"trial_type":"single-stim","trial_index":0,"trial_index_global":278,"time_elapsed":280066,"internal_chunk_id":"0-0.3-35.0-35"},{"rt":-1,"stimulus":"","key_press":-1,"trial_type":"single-stim","trial_index":0,"trial_index_global":279,"time_elapsed":281067,"internal_chunk_id":"0-0.3-35.0-35"},{"rt":199,"stimulus":"<img class = 'decision-stim left' src='images/80.png'></img><img class = 'decision-stim right' src='images/83.png'></img>","key_press":39,"trial_count":35,"type":"decision_second","trial_type":"single-stim","trial_index":0,"trial_index_global":280,"time_elapsed":281467,"internal_chunk_id":"0-0.3-35"},{"rt":-1,"stimulus":"<img class = 'decision-stim left' src='images/80.png'><img class = 'decision-stim right selected' src='images/83.png'>","key_press":-1,"trial_type":"single-stim","trial_index":0,"trial_index_global":281,"time_elapsed":281971,"internal_chunk_id":"0-0.3-35.2-35"},{"rt":-1,"stimulus":"","key_press":-1,"trial_type":"single-stim","trial_index":0,"trial_index_global":282,"time_elapsed":282972,"internal_chunk_id":"0-0.3-35.2-35"},{"rt":-1,"stimulus":"<img class = 'decision-stim' src = 'images/gold_coin.png'></img>","key_press":-1,"trial_count":35,"type":"decision_FB","trial_type":"single-stim","trial_index":0,"trial_index_global":283,"time_elapsed":283476,"internal_chunk_id":"0-0.3-35.2-35"},{"rt":-1,"stimulus":"","key_press":-1,"trial_type":"single-stim","trial_index":0,"trial_index_global":284,"time_elapsed":284477,"internal_chunk_id":"0-0.3-35.2-35"},{"rt":333,"stimulus":"<img class = 'decision-stim left' src='images/82.png'></img><img class = 'decision-stim right' src='images/81.png'></img>","key_press":39,"trial_count":36,"type":"decision_first","trial_type":"single-stim","trial_index":0,"trial_index_global":285,"time_elapsed":284977,"internal_chunk_id":"0-0.3-36.0-36"},{"rt":-1,"stimulus":"<img class = 'decision-stim left' src='images/82.png'><img class = 'decision-stim right selected' src='images/81.png'>","key_press":-1,"trial_type":"single-stim","trial_index":0,"trial_index_global":286,"time_elapsed":285482,"internal_chunk_id":"0-0.3-36.0-36"},{"rt":-1,"stimulus":"","key_press":-1,"trial_type":"single-stim","trial_index":0,"trial_index_global":287,"time_elapsed":286483,"internal_chunk_id":"0-0.3-36.0-36"},{"rt":224,"stimulus":"<img class = 'decision-stim left' src='images/85.png'></img><img class = 'decision-stim right' src='images/84.png'></img>","key_press":37,"trial_count":36,"type":"decision_second","trial_type":"single-stim","trial_index":0,"trial_index_global":288,"time_elapsed":286864,"internal_chunk_id":"0-0.3-36"},{"rt":-1,"stimulus":"<img class = 'decision-stim left selected' src='images/85.png'><img class = 'decision-stim right' src='images/84.png'>","key_press":-1,"trial_type":"single-stim","trial_index":0,"trial_index_global":289,"time_elapsed":287368,"internal_chunk_id":"0-0.3-36.2-36"},{"rt":-1,"stimulus":"","key_press":-1,"trial_type":"single-stim","trial_index":0,"trial_index_global":290,"time_elapsed":288369,"internal_chunk_id":"0-0.3-36.2-36"},{"rt":-1,"stimulus":"<img class = 'decision-stim' src = 'images/gold_coin.png'></img>","key_press":-1,"trial_count":36,"type":"decision_FB","trial_type":"single-stim","trial_index":0,"trial_index_global":291,"time_elapsed":288873,"internal_chunk_id":"0-0.3-36.2-36"},{"rt":-1,"stimulus":"","key_press":-1,"trial_type":"single-stim","trial_index":0,"trial_index_global":292,"time_elapsed":289874,"internal_chunk_id":"0-0.3-36.2-36"},{"rt":137,"stimulus":"<img class = 'decision-stim left' src='images/82.png'></img><img class = 'decision-stim right' src='images/81.png'></img>","key_press":37,"trial_count":37,"type":"decision_first","trial_type":"single-stim","trial_index":0,"trial_index_global":293,"time_elapsed":290193,"internal_chunk_id":"0-0.3-37.0-37"},{"rt":-1,"stimulus":"<img class = 'decision-stim left selected' src='images/82.png'><img class = 'decision-stim right' src='images/81.png'>","key_press":-1,"trial_type":"single-stim","trial_index":0,"trial_index_global":294,"time_elapsed":290698,"internal_chunk_id":"0-0.3-37.0-37"},{"rt":-1,"stimulus":"","key_press":-1,"trial_type":"single-stim","trial_index":0,"trial_index_global":295,"time_elapsed":291700,"internal_chunk_id":"0-0.3-37.0-37"},{"rt":193,"stimulus":"<img class = 'decision-stim left' src='images/85.png'></img><img class = 'decision-stim right' src='images/84.png'></img>","key_press":39,"trial_count":37,"type":"decision_second","trial_type":"single-stim","trial_index":0,"trial_index_global":296,"time_elapsed":292078,"internal_chunk_id":"0-0.3-37"},{"rt":-1,"stimulus":"<img class = 'decision-stim left' src='images/85.png'><img class = 'decision-stim right selected' src='images/84.png'>","key_press":-1,"trial_type":"single-stim","trial_index":0,"trial_index_global":297,"time_elapsed":292583,"internal_chunk_id":"0-0.3-37.2-37"},{"rt":-1,"stimulus":"","key_press":-1,"trial_type":"single-stim","trial_index":0,"trial_index_global":298,"time_elapsed":293584,"internal_chunk_id":"0-0.3-37.2-37"},{"rt":-1,"stimulus":"<div style = text-align:center><p style = 'color:red;font-size:60px'>0</p></div>","key_press":-1,"trial_count":37,"type":"decision_FB","trial_type":"single-stim","trial_index":0,"trial_index_global":299,"time_elapsed":294088,"internal_chunk_id":"0-0.3-37.2-37"},{"rt":-1,"stimulus":"","key_press":-1,"trial_type":"single-stim","trial_index":0,"trial_index_global":300,"time_elapsed":295089,"internal_chunk_id":"0-0.3-37.2-37"},{"rt":348,"stimulus":"<img class = 'decision-stim left' src='images/81.png'></img><img class = 'decision-stim right' src='images/82.png'></img>","key_press":37,"trial_count":38,"type":"decision_first","trial_type":"single-stim","trial_index":0,"trial_index_global":301,"time_elapsed":295567,"internal_chunk_id":"0-0.3-38.0-38"},{"rt":-1,"stimulus":"<img class = 'decision-stim left selected' src='images/81.png'><img class = 'decision-stim right' src='images/82.png'>","key_press":-1,"trial_type":"single-stim","trial_index":0,"trial_index_global":302,"time_elapsed":296072,"internal_chunk_id":"0-0.3-38.0-38"},{"rt":-1,"stimulus":"","key_press":-1,"trial_type":"single-stim","trial_index":0,"trial_index_global":303,"time_elapsed":297074,"internal_chunk_id":"0-0.3-38.0-38"},{"rt":760,"stimulus":"<img class = 'decision-stim left' src='images/85.png'></img><img class = 'decision-stim right' src='images/84.png'></img>","key_press":39,"trial_count":38,"type":"decision_second","trial_type":"single-stim","trial_index":0,"trial_index_global":304,"time_elapsed":298004,"internal_chunk_id":"0-0.3-38"},{"rt":-1,"stimulus":"<img class = 'decision-stim left' src='images/85.png'><img class = 'decision-stim right selected' src='images/84.png'>","key_press":-1,"trial_type":"single-stim","trial_index":0,"trial_index_global":305,"time_elapsed":298509,"internal_chunk_id":"0-0.3-38.2-38"},{"rt":-1,"stimulus":"","key_press":-1,"trial_type":"single-stim","trial_index":0,"trial_index_global":306,"time_elapsed":299510,"internal_chunk_id":"0-0.3-38.2-38"},{"rt":-1,"stimulus":"<div style = text-align:center><p style = 'color:red;font-size:60px'>0</p></div>","key_press":-1,"trial_count":38,"type":"decision_FB","trial_type":"single-stim","trial_index":0,"trial_index_global":307,"time_elapsed":300014,"internal_chunk_id":"0-0.3-38.2-38"},{"rt":-1,"stimulus":"","key_press":-1,"trial_type":"single-stim","trial_index":0,"trial_index_global":308,"time_elapsed":301015,"internal_chunk_id":"0-0.3-38.2-38"},{"rt":402,"stimulus":"<img class = 'decision-stim left' src='images/81.png'></img><img class = 'decision-stim right' src='images/82.png'></img>","key_press":37,"trial_count":39,"type":"decision_first","trial_type":"single-stim","trial_index":0,"trial_index_global":309,"time_elapsed":301557,"internal_chunk_id":"0-0.3-39.0-39"},{"rt":-1,"stimulus":"<img class = 'decision-stim left selected' src='images/81.png'><img class = 'decision-stim right' src='images/82.png'>","key_press":-1,"trial_type":"single-stim","trial_index":0,"trial_index_global":310,"time_elapsed":302062,"internal_chunk_id":"0-0.3-39.0-39"},{"rt":-1,"stimulus":"","key_press":-1,"trial_type":"single-stim","trial_index":0,"trial_index_global":311,"time_elapsed":303063,"internal_chunk_id":"0-0.3-39.0-39"},{"rt":809,"stimulus":"<img class = 'decision-stim left' src='images/80.png'></img><img class = 'decision-stim right' src='images/83.png'></img>","key_press":37,"trial_count":39,"type":"decision_second","trial_type":"single-stim","trial_index":0,"trial_index_global":312,"time_elapsed":304007,"internal_chunk_id":"0-0.3-39"},{"rt":-1,"stimulus":"<img class = 'decision-stim left selected' src='images/80.png'><img class = 'decision-stim right' src='images/83.png'>","key_press":-1,"trial_type":"single-stim","trial_index":0,"trial_index_global":313,"time_elapsed":304512,"internal_chunk_id":"0-0.3-39.2-39"},{"rt":-1,"stimulus":"","key_press":-1,"trial_type":"single-stim","trial_index":0,"trial_index_global":314,"time_elapsed":305513,"internal_chunk_id":"0-0.3-39.2-39"},{"rt":-1,"stimulus":"<img class = 'decision-stim' src = 'images/gold_coin.png'></img>","key_press":-1,"trial_count":39,"type":"decision_FB","trial_type":"single-stim","trial_index":0,"trial_index_global":315,"time_elapsed":306018,"internal_chunk_id":"0-0.3-39.2-39"},{"rt":-1,"stimulus":"","key_press":-1,"trial_type":"single-stim","trial_index":0,"trial_index_global":316,"time_elapsed":307019,"internal_chunk_id":"0-0.3-39.2-39"},{"rt":559,"stimulus":"<img class = 'decision-stim left' src='images/82.png'></img><img class = 'decision-stim right' src='images/81.png'></img>","key_press":37,"trial_count":40,"type":"decision_first","trial_type":"single-stim","trial_index":0,"trial_index_global":317,"time_elapsed":307730,"internal_chunk_id":"0-0.3-40.0-40"},{"rt":-1,"stimulus":"<img class = 'decision-stim left selected' src='images/82.png'><img class = 'decision-stim right' src='images/81.png'>","key_press":-1,"trial_type":"single-stim","trial_index":0,"trial_index_global":318,"time_elapsed":308235,"internal_chunk_id":"0-0.3-40.0-40"},{"rt":-1,"stimulus":"","key_press":-1,"trial_type":"single-stim","trial_index":0,"trial_index_global":319,"time_elapsed":309236,"internal_chunk_id":"0-0.3-40.0-40"},{"rt":431,"stimulus":"<img class = 'decision-stim left' src='images/84.png'></img><img class = 'decision-stim right' src='images/85.png'></img>","key_press":39,"trial_count":40,"type":"decision_second","trial_type":"single-stim","trial_index":0,"trial_index_global":320,"time_elapsed":309839,"internal_chunk_id":"0-0.3-40"},{"rt":-1,"stimulus":"<img class = 'decision-stim left' src='images/84.png'><img class = 'decision-stim right selected' src='images/85.png'>","key_press":-1,"trial_type":"single-stim","trial_index":0,"trial_index_global":321,"time_elapsed":310344,"internal_chunk_id":"0-0.3-40.2-40"},{"rt":-1,"stimulus":"","key_press":-1,"trial_type":"single-stim","trial_index":0,"trial_index_global":322,"time_elapsed":311345,"internal_chunk_id":"0-0.3-40.2-40"},{"rt":-1,"stimulus":"<img class = 'decision-stim' src = 'images/gold_coin.png'></img>","key_press":-1,"trial_count":40,"type":"decision_FB","trial_type":"single-stim","trial_index":0,"trial_index_global":323,"time_elapsed":311850,"internal_chunk_id":"0-0.3-40.2-40"},{"rt":-1,"stimulus":"","key_press":-1,"trial_type":"single-stim","trial_index":0,"trial_index_global":324,"time_elapsed":312851,"internal_chunk_id":"0-0.3-40.2-40"},{"rt":580,"stimulus":"<img class = 'decision-stim left' src='images/82.png'></img><img class = 'decision-stim right' src='images/81.png'></img>","key_press":39,"trial_count":41,"type":"decision_first","trial_type":"single-stim","trial_index":0,"trial_index_global":325,"time_elapsed":313599,"internal_chunk_id":"0-0.3-41.0-41"},{"rt":-1,"stimulus":"<img class = 'decision-stim left' src='images/82.png'><img class = 'decision-stim right selected' src='images/81.png'>","key_press":-1,"trial_type":"single-stim","trial_index":0,"trial_index_global":326,"time_elapsed":314105,"internal_chunk_id":"0-0.3-41.0-41"},{"rt":-1,"stimulus":"","key_press":-1,"trial_type":"single-stim","trial_index":0,"trial_index_global":327,"time_elapsed":315106,"internal_chunk_id":"0-0.3-41.0-41"},{"rt":572,"stimulus":"<img class = 'decision-stim left' src='images/83.png'></img><img class = 'decision-stim right' src='images/80.png'></img>","key_press":37,"trial_count":41,"type":"decision_second","trial_type":"single-stim","trial_index":0,"trial_index_global":328,"time_elapsed":315792,"internal_chunk_id":"0-0.3-41"},{"rt":-1,"stimulus":"<img class = 'decision-stim left selected' src='images/83.png'><img class = 'decision-stim right' src='images/80.png'>","key_press":-1,"trial_type":"single-stim","trial_index":0,"trial_index_global":329,"time_elapsed":316296,"internal_chunk_id":"0-0.3-41.2-41"},{"rt":-1,"stimulus":"","key_press":-1,"trial_type":"single-stim","trial_index":0,"trial_index_global":330,"time_elapsed":317297,"internal_chunk_id":"0-0.3-41.2-41"},{"rt":-1,"stimulus":"<img class = 'decision-stim' src = 'images/gold_coin.png'></img>","key_press":-1,"trial_count":41,"type":"decision_FB","trial_type":"single-stim","trial_index":0,"trial_index_global":331,"time_elapsed":317802,"internal_chunk_id":"0-0.3-41.2-41"},{"rt":-1,"stimulus":"","key_press":-1,"trial_type":"single-stim","trial_index":0,"trial_index_global":332,"time_elapsed":318803,"internal_chunk_id":"0-0.3-41.2-41"},{"rt":390,"stimulus":"<img class = 'decision-stim left' src='images/81.png'></img><img class = 'decision-stim right' src='images/82.png'></img>","key_press":37,"trial_count":42,"type":"decision_first","trial_type":"single-stim","trial_index":0,"trial_index_global":333,"time_elapsed":319335,"internal_chunk_id":"0-0.3-42.0-42"},{"rt":-1,"stimulus":"<img class = 'decision-stim left selected' src='images/81.png'><img class = 'decision-stim right' src='images/82.png'>","key_press":-1,"trial_type":"single-stim","trial_index":0,"trial_index_global":334,"time_elapsed":319840,"internal_chunk_id":"0-0.3-42.0-42"},{"rt":-1,"stimulus":"","key_press":-1,"trial_type":"single-stim","trial_index":0,"trial_index_global":335,"time_elapsed":320841,"internal_chunk_id":"0-0.3-42.0-42"},{"rt":321,"stimulus":"<img class = 'decision-stim left' src='images/83.png'></img><img class = 'decision-stim right' src='images/80.png'></img>","key_press":39,"trial_count":42,"type":"decision_second","trial_type":"single-stim","trial_index":0,"trial_index_global":336,"time_elapsed":321356,"internal_chunk_id":"0-0.3-42"},{"rt":-1,"stimulus":"<img class = 'decision-stim left' src='images/83.png'><img class = 'decision-stim right selected' src='images/80.png'>","key_press":-1,"trial_type":"single-stim","trial_index":0,"trial_index_global":337,"time_elapsed":321861,"internal_chunk_id":"0-0.3-42.2-42"},{"rt":-1,"stimulus":"","key_press":-1,"trial_type":"single-stim","trial_index":0,"trial_index_global":338,"time_elapsed":322862,"internal_chunk_id":"0-0.3-42.2-42"},{"rt":-1,"stimulus":"<div style = text-align:center><p style = 'color:red;font-size:60px'>0</p></div>","key_press":-1,"trial_count":42,"type":"decision_FB","trial_type":"single-stim","trial_index":0,"trial_index_global":339,"time_elapsed":323367,"internal_chunk_id":"0-0.3-42.2-42"},{"rt":-1,"stimulus":"","key_press":-1,"trial_type":"single-stim","trial_index":0,"trial_index_global":340,"time_elapsed":324368,"internal_chunk_id":"0-0.3-42.2-42"},{"rt":404,"stimulus":"<img class = 'decision-stim left' src='images/82.png'></img><img class = 'decision-stim right' src='images/81.png'></img>","key_press":39,"trial_count":43,"type":"decision_first","trial_type":"single-stim","trial_index":0,"trial_index_global":341,"time_elapsed":324937,"internal_chunk_id":"0-0.3-43.0-43"},{"rt":-1,"stimulus":"<img class = 'decision-stim left' src='images/82.png'><img class = 'decision-stim right selected' src='images/81.png'>","key_press":-1,"trial_type":"single-stim","trial_index":0,"trial_index_global":342,"time_elapsed":325443,"internal_chunk_id":"0-0.3-43.0-43"},{"rt":-1,"stimulus":"","key_press":-1,"trial_type":"single-stim","trial_index":0,"trial_index_global":343,"time_elapsed":326444,"internal_chunk_id":"0-0.3-43.0-43"},{"rt":815,"stimulus":"<img class = 'decision-stim left' src='images/83.png'></img><img class = 'decision-stim right' src='images/80.png'></img>","key_press":37,"trial_count":43,"type":"decision_second","trial_type":"single-stim","trial_index":0,"trial_index_global":344,"time_elapsed":327438,"internal_chunk_id":"0-0.3-43"},{"rt":-1,"stimulus":"<img class = 'decision-stim left selected' src='images/83.png'><img class = 'decision-stim right' src='images/80.png'>","key_press":-1,"trial_type":"single-stim","trial_index":0,"trial_index_global":345,"time_elapsed":327943,"internal_chunk_id":"0-0.3-43.2-43"},{"rt":-1,"stimulus":"","key_press":-1,"trial_type":"single-stim","trial_index":0,"trial_index_global":346,"time_elapsed":328944,"internal_chunk_id":"0-0.3-43.2-43"},{"rt":-1,"stimulus":"<img class = 'decision-stim' src = 'images/gold_coin.png'></img>","key_press":-1,"trial_count":43,"type":"decision_FB","trial_type":"single-stim","trial_index":0,"trial_index_global":347,"time_elapsed":329449,"internal_chunk_id":"0-0.3-43.2-43"},{"rt":-1,"stimulus":"","key_press":-1,"trial_type":"single-stim","trial_index":0,"trial_index_global":348,"time_elapsed":330450,"internal_chunk_id":"0-0.3-43.2-43"},{"rt":448,"stimulus":"<img class = 'decision-stim left' src='images/82.png'></img><img class = 'decision-stim right' src='images/81.png'></img>","key_press":39,"trial_count":44,"type":"decision_first","trial_type":"single-stim","trial_index":0,"trial_index_global":349,"time_elapsed":331084,"internal_chunk_id":"0-0.3-44.0-44"},{"rt":-1,"stimulus":"<img class = 'decision-stim left' src='images/82.png'><img class = 'decision-stim right selected' src='images/81.png'>","key_press":-1,"trial_type":"single-stim","trial_index":0,"trial_index_global":350,"time_elapsed":331590,"internal_chunk_id":"0-0.3-44.0-44"},{"rt":-1,"stimulus":"","key_press":-1,"trial_type":"single-stim","trial_index":0,"trial_index_global":351,"time_elapsed":332591,"internal_chunk_id":"0-0.3-44.0-44"},{"rt":211,"stimulus":"<img class = 'decision-stim left' src='images/80.png'></img><img class = 'decision-stim right' src='images/83.png'></img>","key_press":39,"trial_count":44,"type":"decision_second","trial_type":"single-stim","trial_index":0,"trial_index_global":352,"time_elapsed":332968,"internal_chunk_id":"0-0.3-44"},{"rt":-1,"stimulus":"<img class = 'decision-stim left' src='images/80.png'><img class = 'decision-stim right selected' src='images/83.png'>","key_press":-1,"trial_type":"single-stim","trial_index":0,"trial_index_global":353,"time_elapsed":333473,"internal_chunk_id":"0-0.3-44.2-44"},{"rt":-1,"stimulus":"","key_press":-1,"trial_type":"single-stim","trial_index":0,"trial_index_global":354,"time_elapsed":334474,"internal_chunk_id":"0-0.3-44.2-44"},{"rt":-1,"stimulus":"<img class = 'decision-stim' src = 'images/gold_coin.png'></img>","key_press":-1,"trial_count":44,"type":"decision_FB","trial_type":"single-stim","trial_index":0,"trial_index_global":355,"time_elapsed":334979,"internal_chunk_id":"0-0.3-44.2-44"},{"rt":-1,"stimulus":"","key_press":-1,"trial_type":"single-stim","trial_index":0,"trial_index_global":356,"time_elapsed":335980,"internal_chunk_id":"0-0.3-44.2-44"},{"rt":693,"stimulus":"<img class = 'decision-stim left' src='images/81.png'></img><img class = 'decision-stim right' src='images/82.png'></img>","key_press":37,"trial_count":45,"type":"decision_first","trial_type":"single-stim","trial_index":0,"trial_index_global":357,"time_elapsed":336791,"internal_chunk_id":"0-0.3-45.0-45"},{"rt":-1,"stimulus":"<img class = 'decision-stim left selected' src='images/81.png'><img class = 'decision-stim right' src='images/82.png'>","key_press":-1,"trial_type":"single-stim","trial_index":0,"trial_index_global":358,"time_elapsed":337296,"internal_chunk_id":"0-0.3-45.0-45"},{"rt":-1,"stimulus":"","key_press":-1,"trial_type":"single-stim","trial_index":0,"trial_index_global":359,"time_elapsed":338297,"internal_chunk_id":"0-0.3-45.0-45"},{"rt":429,"stimulus":"<img class = 'decision-stim left' src='images/83.png'></img><img class = 'decision-stim right' src='images/80.png'></img>","key_press":37,"trial_count":45,"type":"decision_second","trial_type":"single-stim","trial_index":0,"trial_index_global":360,"time_elapsed":338888,"internal_chunk_id":"0-0.3-45"},{"rt":-1,"stimulus":"<img class = 'decision-stim left selected' src='images/83.png'><img class = 'decision-stim right' src='images/80.png'>","key_press":-1,"trial_type":"single-stim","trial_index":0,"trial_index_global":361,"time_elapsed":339393,"internal_chunk_id":"0-0.3-45.2-45"},{"rt":-1,"stimulus":"","key_press":-1,"trial_type":"single-stim","trial_index":0,"trial_index_global":362,"time_elapsed":340394,"internal_chunk_id":"0-0.3-45.2-45"},{"rt":-1,"stimulus":"<img class = 'decision-stim' src = 'images/gold_coin.png'></img>","key_press":-1,"trial_count":45,"type":"decision_FB","trial_type":"single-stim","trial_index":0,"trial_index_global":363,"time_elapsed":340899,"internal_chunk_id":"0-0.3-45.2-45"},{"rt":-1,"stimulus":"","key_press":-1,"trial_type":"single-stim","trial_index":0,"trial_index_global":364,"time_elapsed":341900,"internal_chunk_id":"0-0.3-45.2-45"},{"rt":313,"stimulus":"<img class = 'decision-stim left' src='images/81.png'></img><img class = 'decision-stim right' src='images/82.png'></img>","key_press":37,"trial_count":46,"type":"decision_first","trial_type":"single-stim","trial_index":0,"trial_index_global":365,"time_elapsed":342348,"internal_chunk_id":"0-0.3-46.0-46"},{"rt":-1,"stimulus":"<img class = 'decision-stim left selected' src='images/81.png'><img class = 'decision-stim right' src='images/82.png'>","key_press":-1,"trial_type":"single-stim","trial_index":0,"trial_index_global":366,"time_elapsed":342853,"internal_chunk_id":"0-0.3-46.0-46"},{"rt":-1,"stimulus":"","key_press":-1,"trial_type":"single-stim","trial_index":0,"trial_index_global":367,"time_elapsed":343854,"internal_chunk_id":"0-0.3-46.0-46"},{"rt":632,"stimulus":"<img class = 'decision-stim left' src='images/83.png'></img><img class = 'decision-stim right' src='images/80.png'></img>","key_press":37,"trial_count":46,"type":"decision_second","trial_type":"single-stim","trial_index":0,"trial_index_global":368,"time_elapsed":344651,"internal_chunk_id":"0-0.3-46"},{"rt":-1,"stimulus":"<img class = 'decision-stim left selected' src='images/83.png'><img class = 'decision-stim right' src='images/80.png'>","key_press":-1,"trial_type":"single-stim","trial_index":0,"trial_index_global":369,"time_elapsed":345156,"internal_chunk_id":"0-0.3-46.2-46"},{"rt":-1,"stimulus":"","key_press":-1,"trial_type":"single-stim","trial_index":0,"trial_index_global":370,"time_elapsed":346157,"internal_chunk_id":"0-0.3-46.2-46"},{"rt":-1,"stimulus":"<div style = text-align:center><p style = 'color:red;font-size:60px'>0</p></div>","key_press":-1,"trial_count":46,"type":"decision_FB","trial_type":"single-stim","trial_index":0,"trial_index_global":371,"time_elapsed":346662,"internal_chunk_id":"0-0.3-46.2-46"},{"rt":-1,"stimulus":"","key_press":-1,"trial_type":"single-stim","trial_index":0,"trial_index_global":372,"time_elapsed":347663,"internal_chunk_id":"0-0.3-46.2-46"},{"rt":544,"stimulus":"<img class = 'decision-stim left' src='images/81.png'></img><img class = 'decision-stim right' src='images/82.png'></img>","key_press":37,"trial_count":47,"type":"decision_first","trial_type":"single-stim","trial_index":0,"trial_index_global":373,"time_elapsed":348335,"internal_chunk_id":"0-0.3-47.0-47"},{"rt":-1,"stimulus":"<img class = 'decision-stim left selected' src='images/81.png'><img class = 'decision-stim right' src='images/82.png'>","key_press":-1,"trial_type":"single-stim","trial_index":0,"trial_index_global":374,"time_elapsed":348840,"internal_chunk_id":"0-0.3-47.0-47"},{"rt":-1,"stimulus":"","key_press":-1,"trial_type":"single-stim","trial_index":0,"trial_index_global":375,"time_elapsed":349842,"internal_chunk_id":"0-0.3-47.0-47"},{"rt":692,"stimulus":"<img class = 'decision-stim left' src='images/83.png'></img><img class = 'decision-stim right' src='images/80.png'></img>","key_press":39,"trial_count":47,"type":"decision_second","trial_type":"single-stim","trial_index":0,"trial_index_global":376,"time_elapsed":350689,"internal_chunk_id":"0-0.3-47"},{"rt":-1,"stimulus":"<img class = 'decision-stim left' src='images/83.png'><img class = 'decision-stim right selected' src='images/80.png'>","key_press":-1,"trial_type":"single-stim","trial_index":0,"trial_index_global":377,"time_elapsed":351194,"internal_chunk_id":"0-0.3-47.2-47"},{"rt":-1,"stimulus":"","key_press":-1,"trial_type":"single-stim","trial_index":0,"trial_index_global":378,"time_elapsed":352195,"internal_chunk_id":"0-0.3-47.2-47"},{"rt":-1,"stimulus":"<div style = text-align:center><p style = 'color:red;font-size:60px'>0</p></div>","key_press":-1,"trial_count":47,"type":"decision_FB","trial_type":"single-stim","trial_index":0,"trial_index_global":379,"time_elapsed":352699,"internal_chunk_id":"0-0.3-47.2-47"},{"rt":-1,"stimulus":"","key_press":-1,"trial_type":"single-stim","trial_index":0,"trial_index_global":380,"time_elapsed":353700,"internal_chunk_id":"0-0.3-47.2-47"},{"rt":482,"stimulus":"<img class = 'decision-stim left' src='images/82.png'></img><img class = 'decision-stim right' src='images/81.png'></img>","key_press":37,"trial_count":48,"type":"decision_first","trial_type":"single-stim","trial_index":0,"trial_index_global":381,"time_elapsed":354307,"internal_chunk_id":"0-0.3-48.0-48"},{"rt":-1,"stimulus":"<img class = 'decision-stim left selected' src='images/82.png'><img class = 'decision-stim right' src='images/81.png'>","key_press":-1,"trial_type":"single-stim","trial_index":0,"trial_index_global":382,"time_elapsed":354812,"internal_chunk_id":"0-0.3-48.0-48"},{"rt":-1,"stimulus":"","key_press":-1,"trial_type":"single-stim","trial_index":0,"trial_index_global":383,"time_elapsed":355814,"internal_chunk_id":"0-0.3-48.0-48"},{"rt":522,"stimulus":"<img class = 'decision-stim left' src='images/84.png'></img><img class = 'decision-stim right' src='images/85.png'></img>","key_press":39,"trial_count":48,"type":"decision_second","trial_type":"single-stim","trial_index":0,"trial_index_global":384,"time_elapsed":356494,"internal_chunk_id":"0-0.3-48"},{"rt":-1,"stimulus":"<img class = 'decision-stim left' src='images/84.png'><img class = 'decision-stim right selected' src='images/85.png'>","key_press":-1,"trial_type":"single-stim","trial_index":0,"trial_index_global":385,"time_elapsed":357000,"internal_chunk_id":"0-0.3-48.2-48"},{"rt":-1,"stimulus":"","key_press":-1,"trial_type":"single-stim","trial_index":0,"trial_index_global":386,"time_elapsed":358001,"internal_chunk_id":"0-0.3-48.2-48"},{"rt":-1,"stimulus":"<div style = text-align:center><p style = 'color:red;font-size:60px'>0</p></div>","key_press":-1,"trial_count":48,"type":"decision_FB","trial_type":"single-stim","trial_index":0,"trial_index_global":387,"time_elapsed":358506,"internal_chunk_id":"0-0.3-48.2-48"},{"rt":-1,"stimulus":"","key_press":-1,"trial_type":"single-stim","trial_index":0,"trial_index_global":388,"time_elapsed":359507,"internal_chunk_id":"0-0.3-48.2-48"},{"rt":534,"stimulus":"<img class = 'decision-stim left' src='images/82.png'></img><img class = 'decision-stim right' src='images/81.png'></img>","key_press":37,"trial_count":49,"type":"decision_first","trial_type":"single-stim","trial_index":0,"trial_index_global":389,"time_elapsed":360158,"internal_chunk_id":"0-0.3-49.0-49"},{"rt":-1,"stimulus":"<img class = 'decision-stim left selected' src='images/82.png'><img class = 'decision-stim right' src='images/81.png'>","key_press":-1,"trial_type":"single-stim","trial_index":0,"trial_index_global":390,"time_elapsed":360663,"internal_chunk_id":"0-0.3-49.0-49"},{"rt":-1,"stimulus":"","key_press":-1,"trial_type":"single-stim","trial_index":0,"trial_index_global":391,"time_elapsed":361664,"internal_chunk_id":"0-0.3-49.0-49"},{"rt":425,"stimulus":"<img class = 'decision-stim left' src='images/84.png'></img><img class = 'decision-stim right' src='images/85.png'></img>","key_press":37,"trial_count":49,"type":"decision_second","trial_type":"single-stim","trial_index":0,"trial_index_global":392,"time_elapsed":362223,"internal_chunk_id":"0-0.3-49"},{"rt":-1,"stimulus":"<img class = 'decision-stim left selected' src='images/84.png'><img class = 'decision-stim right' src='images/85.png'>","key_press":-1,"trial_type":"single-stim","trial_index":0,"trial_index_global":393,"time_elapsed":362731,"internal_chunk_id":"0-0.3-49.2-49"},{"rt":-1,"stimulus":"","key_press":-1,"trial_type":"single-stim","trial_index":0,"trial_index_global":394,"time_elapsed":363732,"internal_chunk_id":"0-0.3-49.2-49"},{"rt":-1,"stimulus":"<img class = 'decision-stim' src = 'images/gold_coin.png'></img>","key_press":-1,"trial_count":49,"type":"decision_FB","trial_type":"single-stim","trial_index":0,"trial_index_global":395,"time_elapsed":364243,"internal_chunk_id":"0-0.3-49.2-49"},{"rt":-1,"stimulus":"","key_press":-1,"trial_type":"single-stim","trial_index":0,"trial_index_global":396,"time_elapsed":365244,"internal_chunk_id":"0-0.3-49.2-49"},{"rt":88103,"key_press":13,"trial_type":"text","trial_index":0,"trial_index_global":397,"time_elapsed":453435,"internal_chunk_id":"0-0"},{"rt":-1,"stimulus":"","key_press":-1,"global_params":{"actions":[37,39],"stims":["'images/11.png'","'images/12.png'","'images/13.png'","'images/15.png'","'images/14.png'","'images/16.png'"],"fs_stim":[{"stimulus":"<img class = 'decision-stim left' src='images/11.png'></img><img class = 'decision-stim right' src='images/12.png'></img>","id":[0,1]},{"stimulus":"<img class = 'decision-stim left' src='images/12.png'></img><img class = 'decision-stim right' src='images/11.png'></img>","id":[1,0]}],"second_stage_stim":{"stimulus":["<img class = 'decision-stim left' src='images/13.png'></img><img class = 'decision-stim right' src='images/15.png'></img>","<img class = 'decision-stim left' src='images/15.png'></img><img class = 'decision-stim right' src='images/13.png'></img>","<img class = 'decision-stim left' src='images/14.png'></img><img class = 'decision-stim right' src='images/16.png'></img>","<img class = 'decision-stim left' src='images/16.png'></img><img class = 'decision-stim right' src='images/14.png'></img>"],"id":[[2,3],[3,2],[4,5],[5,4]]},"condition":"test"},"type":"decision_global","trial_type":"single-stim","trial_index":0,"trial_index_global":398,"ti