[{"rt":634,"key_press":13,"trial_type":"text","trial_index":0,"trial_index_global":0,"time_elapsed":758,"internal_chunk_id":"0-0"},{"rt":90,"key_press":13,"trial_type":"text","trial_index":0,"trial_index_global":1,"time_elapsed":1988,"internal_chunk_id":"0-0"},{"rt":-1,"stimulus":"","key_press":-1,"type":"decision_global","actions":[37,39],"stims":["'images/83.png'","'images/84.png'","'images/82.png'","'images/81.png'","'images/80.png'","'images/85.png'"],"fs_stim":[{"stimulus":"<img class = 'decision-stim left' src='images/83.png'><img class = 'decision-stim right' src='images/84.png'>","id":[0,1]},{"stimulus":"<img class = 'decision-stim left' src='images/84.png'><img class = 'decision-stim right' src='images/83.png'>","id":[1,0]}],"second_stage_stim":{"stimulus":["<img class = 'decision-stim left' src='images/82.png'></img><img class = 'decision-stim right' src='images/81.png'></img>","<img class = 'decision-stim left' src='images/81.png'></img><img class = 'decision-stim right' src='images/82.png'></img>","<img class = 'decision-stim left' src='images/80.png'></img><img class = 'decision-stim right' src='images/85.png'></img>","<img class = 'decision-stim left' src='images/85.png'></img><img class = 'decision-stim right' src='images/80.png'></img>"],"id":[[2,3],[3,2],[4,5],[5,4]]},"condition":"practice","trial_type":"single-stim","trial_index":0,"trial_index_global":2,"time_elapsed":3000,"internal_chunk_id":"0-0"},{"rt":345,"stimulus":"<img class = 'decision-stim left' src='images/84.png'><img class = 'decision-stim right' src='images/83.png'>","key_press":37,"trial_count":0,"type":"decision_first","condition":"practice","trial_type":"single-stim","trial_index":0,"trial_index_global":3,"time_elapsed":3459,"internal_chunk_id":"0-0.3-0.0-0"},{"rt":-1,"stimulus":"<img class = 'decision-stim left selected' src='images/84.png'><img class = 'decision-stim right' src='images/83.png'>","key_press":-1,"trial_type":"single-stim","trial_index":0,"trial_index_global":4,"time_elapsed":3962,"internal_chunk_id":"0-0.3-0.0-0"},{"rt":-1,"stimulus":"","key_press":-1,"trial_type":"single-stim","trial_index":0,"trial_index_global":5,"time_elapsed":4964,"internal_chunk_id":"0-0.3-0.0-0"},{"rt":214,"stimulus":"<img class = 'decision-stim left' src='images/81.png'></img><img class = 'decision-stim right' src='images/82.png'></img>","key_press":37,"trial_count":0,"type":"decision_second","condition":"practice","trial_type":"single-stim","trial_index":0,"trial_index_global":6,"time_elapsed":5307,"internal_chunk_id":"0-0.3-0"},{"rt":-1,"stimulus":"<img class = 'decision-stim left selected' src='images/81.png'><img class = 'decision-stim right' src='images/82.png'>","key_press":-1,"trial_type":"single-stim","trial_index":0,"trial_index_global":7,"time_elapsed":5810,"internal_chunk_id":"0-0.3-0.2-0"},{"rt":-1,"stimulus":"","key_press":-1,"trial_type":"single-stim","trial_index":0,"trial_index_global":8,"time_elapsed":6812,"internal_chunk_id":"0-0.3-0.2-0"},{"rt":332,"stimulus":"<img class = 'decision-stim' src = 'images/gold_coin.png'></img>","key_press":37,"trial_count":0,"type":"decision_FB","condition":"practice","trial_type":"single-stim","trial_index":0,"trial_index_global":9,"time_elapsed":7316,"internal_chunk_id":"0-0.3-0.2-0"},{"rt":-1,"stimulus":"","key_press":-1,"trial_type":"single-stim","trial_index":0,"trial_index_global":10,"time_elapsed":8317,"internal_chunk_id":"0-0.3-0.2-0"},{"rt":181,"stimulus":"<img class = 'decision-stim left' src='images/83.png'><img class = 'decision-stim right' src='images/84.png'>","key_press":37,"trial_count":1,"type":"decision_first","condition":"practice","trial_type":"single-stim","trial_index":0,"trial_index_global":11,"time_elapsed":8650,"internal_chunk_id":"0-0.3-1.0-1"},{"rt":-1,"stimulus":"<img class = 'decision-stim left selected' src='images/83.png'><img class = 'decision-stim right' src='images/84.png'>","key_press":-1,"trial_type":"single-stim","trial_index":0,"trial_index_global":12,"time_elapsed":9152,"internal_chunk_id":"0-0.3-1.0-1"},{"rt":-1,"stimulus":"","key_press":-1,"trial_type":"single-stim","trial_index":0,"trial_index_global":13,"time_elapsed":10154,"internal_chunk_id":"0-0.3-1.0-1"},{"rt":120,"stimulus":"<img class = 'decision-stim left' src='images/81.png'></img><img class = 'decision-stim right' src='images/82.png'></img>","key_press":39,"trial_count":1,"type":"decision_second","condition":"practice","trial_type":"single-stim","trial_index":0,"trial_index_global":14,"time_elapsed":10418,"internal_chunk_id":"0-0.3-1"},{"rt":-1,"stimulus":"<img class = 'decision-stim left' src='images/81.png'><img class = 'decision-stim right selected' src='images/82.png'>","key_press":-1,"trial_type":"single-stim","trial_index":0,"trial_index_global":15,"time_elapsed":10922,"internal_chunk_id":"0-0.3-1.2-1"},{"rt":-1,"stimulus":"","key_press":-1,"trial_type":"single-stim","trial_index":0,"trial_index_global":16,"time_elapsed":11923,"internal_chunk_id":"0-0.3-1.2-1"},{"rt":-1,"stimulus":"<img class = 'decision-stim' src = 'images/gold_coin.png'></img>","key_press":-1,"trial_count":1,"type":"decision_FB","condition":"practice","trial_type":"single-stim","trial_index":0,"trial_index_global":17,"time_elapsed":12425,"internal_chunk_id":"0-0.3-1.2-1"},{"rt":-1,"stimulus":"","key_press":-1,"trial_type":"single-stim","trial_index":0,"trial_index_global":18,"time_elapsed":13426,"internal_chunk_id":"0-0.3-1.2-1"},{"rt":1351,"key_press":13,"trial_type":"text","trial_index":0,"trial_index_global":19,"time_elapsed":14875,"internal_chunk_id":"0-0"},{"rt":-1,"stimulus":"","key_press":-1,"type":"decision_global","actions":[37,39],"stims":["'images/83.png'","'images/84.png'","'images/82.png'","'images/81.png'","'images/80.png'","'images/85.png'"],"fs_stim":[{"stimulus":"<img class = 'decision-stim left' src='images/83.png'><img class = 'decision-stim right' src='images/84.png'>","id":[0,1]},{"stimulus":"<img class = 'decision-stim left' src='images/84.png'><img class = 'decision-stim right' src='images/83.png'>","id":[1,0]}],"second_stage_stim":{"stimulus":["<img class = 'decision-stim left' src='images/82.png'></img><img class = 'decision-stim right' src='images/81.png'></img>","<img class = 'decision-stim left' src='images/81.png'></img><img class = 'decision-stim right' src='images/82.png'></img>","<img class = 'decision-stim left' src='images/80.png'></img><img class = 'decision-stim right' src='images/85.png'></img>","<img class = 'decision-stim left' src='images/85.png'></img><img class = 'decision-stim right' src='images/80.png'></img>"],"id":[[2,3],[3,2],[4,5],[5,4]]},"condition":"practice","trial_type":"single-stim","trial_index":0,"trial_index_global":20,"time_elapsed":15882,"internal_chunk_id":"0-0"},{"rt":248,"stimulus":"<img class = 'decision-stim left' src='images/15.png'><img class = 'decision-stim right' src='images/13.png'>","key_press":37,"trial_count":0,"type":"decision_first","condition":"practice","trial_type":"single-stim","trial_index":0,"trial_index_global":21,"time_elapsed":16267,"internal_chunk_id":"0-0.6-0.0-0"},{"rt":-1,"stimulus":"<img class = 'decision-stim left selected' src='images/15.png'><img class = 'decision-stim right' src='images/13.png'>","key_press":-1,"trial_type":"single-stim","trial_index":0,"trial_index_global":22,"time_elapsed":16771,"internal_chunk_id":"0-0.6-0.0-0"},{"rt":-1,"stimulus":"","key_press":-1,"trial_type":"single-stim","trial_index":0,"trial_index_global":23,"time_elapsed":17772,"internal_chunk_id":"0-0.6-0.0-0"},{"rt":293,"stimulus":"<img class = 'decision-stim left' src='images/16.png'></img><img class = 'decision-stim right' src='images/14.png'></img>","key_press":37,"trial_count":0,"type":"decision_second","condition":"practice","trial_type":"single-stim","trial_index":0,"trial_index_global":24,"time_elapsed":18203,"internal_chunk_id":"0-0.6-0"},{"rt":-1,"stimulus":"<img class = 'decision-stim left selected' src='images/16.png'><img class = 'decision-stim right' src='images/14.png'>","key_press":-1,"trial_type":"single-stim","trial_index":0,"trial_index_global":25,"time_elapsed":18706,"internal_chunk_id":"0-0.6-0.2-0"},{"rt":-1,"stimulus":"","key_press":-1,"trial_type":"single-stim","trial_index":0,"trial_index_global":26,"time_elapsed":19708,"internal_chunk_id":"0-0.6-0.2-0"},{"rt":-1,"stimulus":"<div style = text-align:center><p style = 'color:red;font-size:60px'>0</p></div>","key_press":-1,"trial_count":0,"type":"decision_FB","condition":"practice","trial_type":"single-stim","trial_index":0,"trial_index_global":27,"time_elapsed":20210,"internal_chunk_id":"0-0.6-0.2-0"},{"rt":-1,"stimulus":"","key_press":-1,"trial_type":"single-stim","trial_index":0,"trial_index_global":28,"time_elapsed":21212,"internal_chunk_id":"0-0.6-0.2-0"},{"rt":109,"key_press":39,"trial_type":"text","trial_index":0,"trial_index_global":29,"time_elapsed":21475,"internal_chunk_id":"0-0"},{"rt":255,"stimulus":"<img class = 'decision-stim left' src='images/13.png'><img class = 'decision-stim right' src='images/15.png'>","key_press":39,"trial_count":1,"type":"decision_first","condition":"practice","trial_type":"single-stim","trial_index":0,"trial_index_global":30,"time_elapsed":22850,"internal_chunk_id":"0-0.8-0.0-0"},{"rt":-1,"stimulus":"<img class = 'decision-stim left' src='images/13.png'><img class = 'decision-stim right selected' src='images/15.png'>","key_press":-1,"trial_type":"single-stim","trial_index":0,"trial_index_global":31,"time_elapsed":23354,"internal_chunk_id":"0-0.8-0.0-0"},{"rt":-1,"stimulus":"","key_press":-1,"trial_type":"single-stim","trial_index":0,"trial_index_global":32,"time_elapsed":24355,"internal_chunk_id":"0-0.8-0.0-0"},{"rt":102,"stimulus":"<img class = 'decision-stim left' src='images/16.png'></img><img class = 'decision-stim right' src='images/14.png'></img>","key_press":37,"trial_count":1,"type":"decision_second","condition":"practice","trial_type":"single-stim","trial_index":0,"trial_index_global":33,"time_elapsed":24602,"internal_chunk_id":"0-0.8-0"},{"rt":-1,"stimulus":"<img class = 'decision-stim left selected' src='images/16.png'><img class = 'decision-stim right' src='images/14.png'>","key_press":-1,"trial_type":"single-stim","trial_index":0,"trial_index_global":34,"time_elapsed":25106,"internal_chunk_id":"0-0.8-0.2-0"},{"rt":-1,"stimulus":"","key_press":-1,"trial_type":"single-stim","trial_index":0,"trial_index_global":35,"time_elapsed":26108,"internal_chunk_id":"0-0.8-0.2-0"},{"rt":-1,"stimulus":"<div style = text-align:center><p style = 'color:red;font-size:60px'>0</p></div>","key_press":-1,"trial_count":1,"type":"decision_FB","condition":"practice","trial_type":"single-stim","trial_index":0,"trial_index_global":36,"time_elapsed":26611,"internal_chunk_id":"0-0.8-0.2-0"},{"rt":-1,"stimulus":"","key_press":-1,"trial_type":"single-stim","trial_index":0,"trial_index_global":37,"time_elapsed":27613,"internal_chunk_id":"0-0.8-0.2-0"},{"rt":229,"key_press":39,"trial_type":"text","trial_index":0,"trial_index_global":38,"time_elapsed":27986,"internal_chunk_id":"0-0"},{"rt":199,"stimulus":"<img class = 'decision-stim left' src='images/13.png'><img class = 'decision-stim right' src='images/15.png'>","key_press":37,"trial_count":2,"type":"decision_first","condition":"practice","trial_type":"single-stim","trial_index":0,"trial_index_global":39,"time_elapsed":29323,"internal_chunk_id":"0-0.10-0.0-0"},{"rt":-1,"stimulus":"<img class = 'decision-stim left selected' src='images/13.png'><img class = 'decision-stim right' src='images/15.png'>","key_press":-1,"trial_type":"single-stim","trial_index":0,"trial_index_global":40,"time_elapsed":29827,"internal_chunk_id":"0-0.10-0.0-0"},{"rt":-1,"stimulus":"","key_press":-1,"trial_type":"single-stim","trial_index":0,"trial_index_global":41,"time_elapsed":30829,"internal_chunk_id":"0-0.10-0.0-0"},{"rt":500,"stimulus":"<img class = 'decision-stim left' src='images/16.png'></img><img class = 'decision-stim right' src='images/14.png'></img>","key_press":37,"trial_count":2,"type":"decision_second","condition":"practice","trial_type":"single-stim","trial_index":0,"trial_index_global":42,"time_elapsed":31475,"internal_chunk_id":"0-0.10-0"},{"rt":-1,"stimulus":"<img class = 'decision-stim left selected' src='images/16.png'><img class = 'decision-stim right' src='images/14.png'>","key_press":-1,"trial_type":"single-stim","trial_index":0,"trial_index_global":43,"time_elapsed":31978,"internal_chunk_id":"0-0.10-0.2-0"},{"rt":-1,"stimulus":"","key_press":-1,"trial_type":"single-stim","trial_index":0,"trial_index_global":44,"time_elapsed":32980,"internal_chunk_id":"0-0.10-0.2-0"},{"rt":-1,"stimulus":"<div style = text-align:center><p style = 'color:red;font-size:60px'>0</p></div>","key_press":-1,"trial_count":2,"type":"decision_FB","condition":"practice","trial_type":"single-stim","trial_index":0,"trial_index_global":45,"time_elapsed":33483,"internal_chunk_id":"0-0.10-0.2-0"},{"rt":-1,"stimulus":"","key_press":-1,"trial_type":"single-stim","trial_index":0,"trial_index_global":46,"time_elapsed":34485,"internal_chunk_id":"0-0.10-0.2-0"},{"rt":27,"stimulus":"<img class = 'decision-stim left' src='images/15.png'><img class = 'decision-stim right' src='images/13.png'>","key_press":39,"trial_count":3,"type":"decision_first","condition":"practice","trial_type":"single-stim","trial_index":0,"trial_index_global":47,"time_elapsed":34698,"internal_chunk_id":"0-0.10-1.0-1"},{"rt":-1,"stimulus":"<img class = 'decision-stim left' src='images/15.png'><img class = 'decision-stim right selected' src='images/13.png'>","key_press":-1,"trial_type":"single-stim","trial_index":0,"trial_index_global":48,"time_elapsed":35203,"internal_chunk_id":"0-0.10-1.0-1"},{"rt":-1,"stimulus":"","key_press":-1,"trial_type":"single-stim","trial_index":0,"trial_index_global":49,"time_elapsed":36204,"internal_chunk_id":"0-0.10-1.0-1"},{"rt":77,"stimulus":"<img class = 'decision-stim left' src='images/16.png'></img><img class = 'decision-stim right' src='images/14.png'></img>","key_press":37,"trial_count":3,"type":"decision_second","condition":"practice","trial_type":"single-stim","trial_index":0,"trial_index_global":50,"time_elapsed":36434,"internal_chunk_id":"0-0.10-1"},{"rt":-1,"stimulus":"<img class = 'decision-stim left selected' src='images/16.png'><img class = 'decision-stim right' src='images/14.png'>","key_press":-1,"trial_type":"single-stim","trial_index":0,"trial_index_global":51,"time_elapsed":36939,"internal_chunk_id":"0-0.10-1.2-1"},{"rt":-1,"stimulus":"","key_press":-1,"trial_type":"single-stim","trial_index":0,"trial_index_global":52,"time_elapsed":37941,"internal_chunk_id":"0-0.10-1.2-1"},{"rt":-1,"stimulus":"<div style = text-align:center><p style = 'color:red;font-size:60px'>0</p></div>","key_press":-1,"trial_count":3,"type":"decision_FB","condition":"practice","trial_type":"single-stim","trial_index":0,"trial_index_global":53,"time_elapsed":38444,"internal_chunk_id":"0-0.10-1.2-1"},{"rt":-1,"stimulus":"","key_press":-1,"trial_type":"single-stim","trial_index":0,"trial_index_global":54,"time_elapsed":39446,"internal_chunk_id":"0-0.10-1.2-1"},{"rt":1073,"key_press":13,"trial_type":"text","trial_index":0,"trial_index_global":55,"time_elapsed":40635,"internal_chunk_id":"0-0"},{"rt":-1,"stimulus":"<p class = stroop-stim>+</p>","key_press":-1,"trial_type":"single-stim","trial_index":0,"trial_index_global":56,"time_elapsed":41838,"internal_chunk_id":"0-0.12-0"},{"rt":27,"stimulus":"<p class = stroop-stim style = \"color:blue\">BLUE</p>","key_press":37,"type":"stroop_practice","trial_type":"single-stim","trial_index":0,"trial_index_global":57,"time_elapsed":41994,"internal_chunk_id":"0-0.12-0"},{"rt":-1,"stimulus":"<p class = stroop-stim>+</p>","key_press":-1,"trial_type":"single-stim","trial_index":0,"trial_index_global":58,"time_elapsed":43200,"internal_chunk_id":"0-0.12-1"},{"rt":25,"stimulus":"<p class = stroop-stim style = \"color:green\">GREEN</p>","key_press":40,"type":"stroop_practice","trial_type":"single-stim","trial_index":0,"trial_index_global":59,"time_elapsed":43402,"internal_chunk_id":"0-0.12-1"},{"rt":-1,"stimulus":"<p class = stroop-stim>+</p>","key_press":-1,"trial_type":"single-stim","trial_index":0,"trial_index_global":60,"time_elapsed":44605,"internal_chunk_id":"0-0.12-2"},{"rt":28,"stimulus":"<p class = stroop-stim style = \"color:blue\">RED</p>","key_press":37,"type":"stroop_practice","trial_type":"single-stim","trial_index":0,"trial_index_global":61,"time_elapsed":44812,"internal_chunk_id":"0-0.12-2"},{"rt":-1,"stimulus":"<p class = stroop-stim>+</p>","key_press":-1,"trial_type":"single-stim","trial_index":0,"trial_index_global":62,"time_elapsed":46016,"internal_chunk_id":"0-0.12-3"},{"rt":202,"stimulus":"<p class = stroop-stim style = \"color:blue\">RED</p>","key_press":37,"type":"stroop_practice","trial_type":"single-stim","trial_index":0,"trial_index_global":63,"time_elapsed":46370,"internal_chunk_id":"0-0.12-3"},{"rt":-1,"stimulus":"<p class = stroop-stim>+</p>","key_press":-1,"trial_type":"single-stim","trial_index":0,"trial_index_global":64,"time_elapsed":47576,"internal_chunk_id":"0-0.12-4"},{"rt":51,"stimulus":"<p class = stroop-stim style = \"color:red\">RED</p>","key_press":39,"type":"stroop_practice","trial_type":"single-stim","trial_index":0,"trial_index_global":65,"time_elapsed":47786,"internal_chunk_id":"0-0.12-4"},{"rt":21,"stimulus":"<p class = stroop-stim>+</p>","key_press":39,"trial_type":"single-stim","trial_index":0,"trial_index_global":66,"time_elapsed":48991,"internal_chunk_id":"0-0.12-5"},{"rt":115,"stimulus":"<p class = stroop-stim style = \"color:red\">GREEN</p>","key_press":40,"type":"stroop_practice","trial_type":"single-stim","trial_index":0,"trial_index_global":67,"time_elapsed":49314,"internal_chunk_id":"0-0.12-5"},{"rt":-1,"stimulus":"<p class = stroop-stim>+</p>","key_press":-1,"trial_type":"single-stim","trial_index":0,"trial_index_global":68,"time_elapsed":50519,"internal_chunk_id":"0-0.12-6"},{"rt":74,"stimulus":"<p class = stroop-stim style = \"color:green\">RED</p>","key_press":40,"type":"stroop_practice","trial_type":"single-stim","trial_index":0,"trial_index_global":69,"time_elapsed":50834,"internal_chunk_id":"0-0.12-6"},{"rt":-1,"stimulus":"<p class = stroop-stim>+</p>","key_press":-1,"trial_type":"single-stim","trial_index":0,"trial_index_global":70,"time_elapsed":52038,"internal_chunk_id":"0-0.12-7"},{"rt":99,"stimulus":"<p class = stroop-stim style = \"color:blue\">BLUE</p>","key_press":39,"type":"stroop_practice","trial_type":"single-stim","trial_index":0,"trial_index_global":71,"time_elapsed":52274,"internal_chunk_id":"0-0.12-7"},{"rt":-1,"stimulus":"<p class = stroop-stim>+</p>","key_press":-1,"trial_type":"single-stim","trial_index":0,"trial_index_global":72,"time_elapsed":53478,"internal_chunk_id":"0-0.12-8"},{"rt":91,"stimulus":"<p class = stroop-stim style = \"color:red\">BLUE</p>","key_press":39,"type":"stroop_practice","trial_type":"single-stim","trial_index":0,"trial_index_global":73,"time_elapsed":53722,"internal_chunk_id":"0-0.12-8"},{"rt":-1,"stimulus":"<p class = stroop-stim>+</p>","key_press":-1,"trial_type":"single-stim","trial_index":0,"trial_index_global":74,"time_elapsed":54927,"internal_chunk_id":"0-0.12-9"},{"rt":35,"stimulus":"<p class = stroop-stim style = \"color:red\">RED</p>","key_press":40,"type":"stroop_practice","trial_type":"single-stim","trial_index":0,"trial_index_global":75,"time_elapsed":55186,"internal_chunk_id":"0-0.12-9"},{"rt":1030,"key_press":13,"trial_type":"text","trial_index":0,"trial_index_global":76,"time_elapsed":57322,"internal_chunk_id":"0-0"},{"rt":-1,"stimulus":"<p class = stroop-stim>+</p>","key_press":-1,"trial_type":"single-stim","trial_index":0,"trial_index_global":77,"time_elapsed":58524,"internal_chunk_id":"0-0.14-0"},{"rt":246,"stimulus":"<p class = stroop-stim style = \"color:blue\">BLUE</p>","key_press":37,"type":"stroop_infrequent","trial_type":"single-stim","trial_index":0,"trial_index_global":78,"time_elapsed":58978,"internal_chunk_id":"0-0.14-0"},{"rt":-1,"stimulus":"<p class = stroop-stim>+</p>","key_press":-1,"trial_type":"single-stim","trial_index":0,"trial_index_global":79,"time_elapsed":60182,"internal_chunk_id":"0-0.14-1"},{"rt":52,"stimulus":"<p class = stroop-stim style = \"color:red\">RED</p>","key_press":37,"type":"stroop_infrequent","trial_type":"single-stim","trial_index":0,"trial_index_global":80,"time_elapsed":60450,"internal_chunk_id":"0-0.14-1"},{"rt":-1,"stimulus":"<p class = stroop-stim>+</p>","key_press":-1,"trial_type":"single-stim","trial_index":0,"trial_index_global":81,"time_elapsed":61654,"internal_chunk_id":"0-0.14-2"},{"rt":100,"stimulus":"<p class = stroop-stim style = \"color:green\">GREEN</p>","key_press":37,"type":"stroop_infrequent","trial_type":"single-stim","trial_index":0,"trial_index_global":82,"time_elapsed":61930,"internal_chunk_id":"0-0.14-2"},{"rt":853,"key_press":13,"trial_type":"text","trial_index":0,"trial_index_global":83,"time_elapsed":63906,"internal_chunk_id":"0-0"},{"rt":-1,"stimulus":"<p class = stroop-stim>+</p>","key_press":-1,"trial_type":"single-stim","trial_index":0,"trial_index_global":84,"time_elapsed":65109,"internal_chunk_id":"0-0.16-0"},{"rt":236,"stimulus":"<p class = stroop-stim style = \"color:green\">GREEN</p>","key_press":37,"type":"stroop_frequent","trial_type":"single-stim","trial_index":0,"trial_index_global":85,"time_elapsed":65514,"internal_chunk_id":"0-0.16-0"},{"rt":-1,"stimulus":"<p class = stroop-stim>+</p>","key_press":-1,"trial_type":"single-stim","trial_index":0,"trial_index_global":86,"time_elapsed":66719,"internal_chunk_id":"0-0.16-1"},{"rt":11,"stimulus":"<p class = stroop-stim style = \"color:blue\">BLUE</p>","key_press":37,"type":"stroop_frequent","trial_type":"single-stim","trial_index":0,"trial_index_global":87,"time_elapsed":66882,"internal_chunk_id":"0-0.16-1"},{"rt":-1,"stimulus":"<p class = stroop-stim>+</p>","key_press":-1,"trial_type":"single-stim","trial_index":0,"trial_index_global":88,"time_elapsed":68087,"internal_chunk_id":"0-0.16-2"},{"rt":139,"stimulus":"<p class = stroop-stim style = \"color:red\">RED</p>","key_press":39,"type":"stroop_frequent","trial_type":"single-stim","trial_index":0,"trial_index_global":89,"time_elapsed":68362,"internal_chunk_id":"0-0.16-2"}]